ts_receiver	acc_x	acc_y	acc_z	gyr_x	gyr_y	gyr_z
1734600918.6684618	0.989	-0.134	0.019	-10.43	3.57	-2.1
1734600918.7184618	0.9910602751353523	-0.13688438518949325	0.015703559783436273	-10.15598340699814	3.469046518367736	-1.9846245924202697
1734600918.7684617	0.9931205502707047	-0.13976877037898652	0.012407119566872547	-9.88196681399628	3.3680930367354716	-1.8692491848405393
1734600918.818462	0.995180825406057	-0.1426531555684798	0.00911067935030882	-9.60795022099442	3.2671395551032076	-1.7538737772608088
1734600918.8684618	0.9972411005414094	-0.14553754075797304	0.005814239133745095	-9.333933627992561	3.1661860734709437	-1.6384983696810784
1734600918.9184618	0.999	-0.14750478568344133	0.006136357338204888	-9.43798377105129	3.082888750179926	-1.5891087530587344
1734600918.9684618	0.999	-0.14411938393490126	0.02757723507895875	-11.748520464429896	3.1026369270464094	-1.9248277597889594
1734600919.0184617	0.999	-0.14073398218636118	0.04901811281971259	-14.0590571578085	3.122385103912893	-2.260546766519184
1734600919.068462	0.999	-0.1373485804378211	0.07045899056046644	-16.369593851187105	3.142133280779377	-2.5962657732494083
1734600919.1184618	0.9941168097342735	-0.13990655221258116	0.08241823318600852	-7.753129411036197	1.0648777565347962	-2.490723676979403
1734600919.1684618	0.989	-0.14011773816572345	0.08258360958583663	1.7943163414250525	-1.4243693278072815	-2.1802131677521412
1734600919.2184618	0.989	-0.12961286981018472	0.07333932543296255	0.5883574542092056	-2.247951006881518	-2.0184381950768446
1734600919.2684617	0.989	-0.11910800145464598	0.06409504128008846	-0.6176014330066413	-3.071532685955755	-1.8566632224015482
1734600919.318462	0.989	-0.10860313309910727	0.0548507571272144	-1.8235603202224855	-3.89511436502999	-1.694888249726252
1734600919.3684618	0.989	-0.09809826474356853	0.04560647297434032	-3.029519207438332	-4.718696044104227	-1.5331132770509555
1734600919.4184618	0.9880016665040492	-0.10573041857742219	0.047740417601717246	-3.622295853253976	-4.026691501609913	-1.6447083617913942
1734600919.4684618	0.9863647052395356	-0.12496471343545712	0.057152944872670516	-3.822823608156894	-2.365175818128596	-1.9311765830812764
1734600919.5184617	0.9853242499035507	-0.14070277092174516	0.06472979174704106	-3.8859698226108073	-1.0140462398728267	-2.149193964522161
1734600919.568462	0.987273828548055	-0.13891565716428292	0.06310514287662085	-3.2604800074990274	-1.2187519975457728	-2.0240960014998053
1734600919.6184618	0.9892234071925592	-0.1371285434068207	0.06148049400620064	-2.6349901923872467	-1.4234577552187195	-1.8989980384774492
1734600919.6684618	0.9911729858370635	-0.13534142964935847	0.05985584513578043	-2.009500377275467	-1.6281635128916656	-1.7739000754550933
1734600919.7184618	0.9931225644815678	-0.13355431589189626	0.058231196265360226	-1.3840105621636862	-1.8328692705646121	-1.6488021124327372
1734600919.7684617	0.995072143126072	-0.13176720213443402	0.05660654739494001	-0.7585207470519051	-2.0375750282375584	-1.523704149410381
1734600919.818462	0.9969951996433528	-0.1299183939369971	0.05493279500693879	-0.14924068654591696	-2.239159937586735	-1.400336024965306
1734600919.8684618	0.9965643566431196	-0.1225940629330331	0.04890099300367431	-0.9786134619947827	-2.163762412545929	-1.4304950349816283
1734600919.9184618	0.9961335136428864	-0.11526973192906911	0.042869191000409854	-1.8079862374436448	-2.088364887505123	-1.4606540449979506
1734600919.9684618	0.9957026706426533	-0.1079454009251051	0.03683738899714538	-2.6373590128925106	-2.0129673624643174	-1.490813055014273
1734600920.0184617	0.9952718276424201	-0.10062106992114109	0.0308055869938809	-3.4667317883413764	-1.9375698374235113	-1.5209720650305956
1734600920.068462	0.9946414802364938	-0.09651217109072321	0.028434079054025004	-3.6673322128443746	-1.7824440709481246	-1.5937779645259376
1734600920.1184618	0.9936700914808652	-0.09789986931304984	0.03231963407653955	-2.7930823327786003	-1.4910274442595333	-1.7394862778702334
1734600920.1684618	0.9926987027252365	-0.09928756753537646	0.03620518909905409	-1.9188324527128295	-1.1996108175709432	-1.8851945912145283
1734600920.2184618	0.9917273139696078	-0.10067526575770308	0.04009074412156864	-1.0445825726470548	-0.9081941908823516	-2.030902904558824
1734600920.2684617	0.9907559252139791	-0.10206296398002972	0.0439762991440832	-0.17033269258128048	-0.6167775641937603	-2.17661121790312
1734600920.318462	0.9897845364583505	-0.10345066220235634	0.04786185416659775	0.7039171874844943	-0.3253609375051687	-2.3223195312474156
1734600920.3684618	0.9888131477027219	-0.10483836042468296	0.0517474091891123	1.5781670675502681	-0.03394431081657734	-2.4680278445917114
1734600920.4184618	0.9892198893054811	-0.10640662976849372	0.05391565395068341	1.9779190223967942	-0.19798520105536707	-2.371775357575036
1734600920.4684618	0.9967083806463132	-0.10890279354877105	0.047259217203277186	-0.06061473149636143	-2.7024695272669583	-1.0321674621595338
1734600920.5184617	0.9921276601059651	-0.09113475372187188	0.027510640423860235	1.0537232740385605	-3.652659481456115	-2.0031913777473376
1734600920.568462	0.9923025897050836	-0.06941503898137195	0.020069173163561993	0.3270059270856598	-4.55665491500783	-2.24
1734600920.6184618	0.9939777918011311	-0.04679981068473008	0.016299968447455015	-0.962899686870951	-5.4654520521136245	-2.24
1734600920.6684618	0.9930575739574671	-0.04789193299275277	0.005906558156112629	0.6068102649400022	-6.0653232743257695	-3.010495663538078
1734600920.7184618	1.0168205661958687	-0.09316768546692346	-0.1461358217767003	-0.14230935581496162	-29.915041835079037	1.1980994496579433
1734600920.7684617	0.9813215500406666	-0.03948624640295929	-0.07167447081700803	-7.354670442957245	-29.127136842366017	0.7738429151201621
1734600920.818462	0.9891051326053042	-0.09168336193447728	-0.08477872542901713	-14.171575460218397	-22.254952683307344	0.9402077847113881
1734600920.8684618	0.9823812480359446	-0.08503874567907829	-0.08304421762066819	-13.321666634127414	-15.220186262645147	0.8593374725032255
1734600920.9184618	0.9711637570789566	-0.060360265573704726	-0.07659416032040009	-10.161138556996049	-8.153166959742716	0.7022925991053937
1734600920.9684618	0.9599462661219685	-0.03568178546833094	-0.07014410302013195	-7.0006104798646565	-1.0861476568402217	0.5452477257075605
1734600921.0184617	0.9519934003630645	-0.016404095062941493	-0.06680159048894749	-4.623790493230015	4.56767915900369	0.4388577696039363
1734600921.068462	0.956899766046253	-0.018399904832374137	-0.07569957571100136	-5.333966136186464	4.654995836416369	0.5319955588441264
1734600921.1184618	0.9618061317294416	-0.020395714601806766	-0.08459756093305515	-6.044141779142907	4.742312513829046	0.6251333480843156
1734600921.1684618	0.9667124974126301	-0.022391524371239393	-0.09349554615510895	-6.7543174220993505	4.8296291912417235	0.718271137324505
1734600921.2184618	0.9716188630958187	-0.024387334140672037	-0.10239353137716282	-7.4644930650558	4.916945868654402	0.8114089265646951
1734600921.2684617	0.9765252287790073	-0.026383143910104663	-0.11129151659921663	-8.174668708012243	5.004262546067078	0.9045467158048843
1734600921.318462	0.9814315944621959	-0.02837895367953731	-0.1201895018212705	-8.884844350968692	5.091579223479757	0.9976845050450744
1734600921.3684618	0.9863379601453844	-0.030374763448969937	-0.1290874870433243	-9.595019993925135	5.178895900892434	1.0908222942852637
1734600921.4184618	0.9912443258285729	-0.03237057321840256	-0.13798547226537808	-10.305195636881578	5.266212578305112	1.1839600835254531
1734600921.4684618	0.9961506915117615	-0.03436638298783521	-0.14688345748743198	-11.015371279838028	5.35352925571779	1.2770978727656432
1734600921.5184617	1.0010570571949502	-0.03636219275726783	-0.15578144270948574	-11.725546922794472	5.4408459331304675	1.3702356620058325
1734600921.568462	1.0059634228781387	-0.03835800252670048	-0.1646794279315396	-12.435722565750922	5.528162610543146	1.4633734512460226
1734600921.6184618	1.0099156971960233	-0.04029505981391856	-0.17340153411611314	-13.31063391670978	5.602212948604389	1.6358944395235315
1734600921.6684618	1.009440155894587	-0.0419594543689458	-0.18130740825249253	-14.95006255341161	5.614695907767093	2.1768226699073847
1734600921.7184618	1.0089646145931506	-0.04362384892397306	-0.189213282388872	-16.589491190113456	5.627178866929798	2.7177509002912426
1734600921.7684617	1.0084890732917142	-0.0452882434790003	-0.1971191565252514	-18.22891982681529	5.639661826092502	3.2586791306750955
1734600921.818462	1.0080135319902779	-0.04695263803402755	-0.20502503066163086	-19.868348463517137	5.6521447852552065	3.799607361058954
1734600921.8684618	1.0075379906888415	-0.04861703258905479	-0.21293090479801025	-21.507777100218966	5.664627744417911	4.340535591442807
1734600921.9184618	1.0070624493874052	-0.05028142714408203	-0.22083677893438963	-23.147205736920796	5.677110703580615	4.88146382182666
1734600921.9684618	1.0065869080859688	-0.05194582169910929	-0.22874265307076908	-24.786634373622643	5.689593662743319	5.422392052210518
1734600922.0184617	1.0061113667845325	-0.053610216254136527	-0.23664852720714846	-26.426063010324476	5.7020766219060235	5.963320282594371
1734600922.068462	1.0056358254830962	-0.05527461080916378	-0.24455440134352793	-28.06549164702632	5.714559581068728	6.504248512978229
1734600922.1184618	1.0051602841816598	-0.056939005364191025	-0.25246027547990735	-29.704920283728153	5.727042540231432	7.045176743362083
1734600922.1684618	1.0046847428802235	-0.05860339991921826	-0.26036614961628674	-31.344348920429987	5.739525499394136	7.586104973745935
1734600922.2184618	1.004209201578787	-0.06026779447424552	-0.2682720237526662	-32.98377755713183	5.752008458556841	8.127033204129795
1734600922.2684617	1.0037336602773506	-0.06193218902927276	-0.27617789788904556	-34.62320619383367	5.764491417719546	8.667961434513646
1734600922.318462	1.0032581189759142	-0.06359658358430001	-0.284083772025425	-36.262634830535504	5.77697437688225	9.208889664897505
1734600922.3684618	1.0027825776744779	-0.06526097813932726	-0.29198964616180445	-37.90206346723734	5.789457336044954	9.749817895281357
1734600922.4184618	1.0023070363730415	-0.0669253726943545	-0.2998955202981838	-39.54149210393918	5.801940295207658	10.290746125665212
1734600922.4684618	1.0019731030266659	-0.06662825435996479	-0.3052420727600062	-40.43996300866256	5.817531152533526	10.521384347596955
1734600922.5184617	1.0018971965126797	-0.06275702214666305	-0.305925231385883	-39.98831925044402	5.838784976449693	10.186636620917334
1734600922.568462	1.0018212899986934	-0.05888578993336128	-0.30660839001175977	-39.536675492225484	5.860038800365859	9.85188889423771
1734600922.6184618	1.001745383484707	-0.05501455772005954	-0.3072915486376365	-39.08503173400695	5.881292624282025	9.51714116755809
1734600922.6684618	1.0016694769707206	-0.0511433255067578	-0.30797470726351334	-38.63338797578841	5.902546448198192	9.182393440878469
1734600922.7184618	1.0015935704567345	-0.047272093293456066	-0.3086578658893901	-38.18174421756987	5.923800272114359	8.847645714198848
1734600922.7684617	1.001517663942748	-0.04340086108015426	-0.3093410245152669	-37.73010045935133	5.945054096030526	8.51289798751922
1734600922.818462	1.0014417574287617	-0.03952962886685252	-0.31002418314114366	-37.2784567011328	5.966307919946692	8.178150260839601
1734600922.8684618	1.0013658509147754	-0.03565839665355078	-0.3107073417670205	-36.82681294291426	5.987561743862858	7.84340253415998
1734600922.9184618	1.0012899444007892	-0.03178716444024904	-0.31139050039289723	-36.37516918469572	6.008815567779025	7.508654807480358
1734600922.9684618	1.0012140378868029	-0.0279159322269473	-0.312073659018774	-35.923525426477184	6.030069391695191	7.1739070808007375
1734600923.0184617	1.0011381313728165	-0.024044700013645497	-0.3127568176446508	-35.47188166825864	6.051323215611358	6.839159354121111
1734600923.068462	1.0010622248588301	-0.020173467800343757	-0.31343997627052755	-35.0202379100401	6.072577039527524	6.50441162744149
1734600923.1184618	1.0011203301775675	-0.017240660355135076	-0.3087054721870284	-33.80137142270494	5.681479047158211	6.091018644909495
1734600923.1684618	1.0017879280816466	-0.018575856163293374	-0.27933116440754585	-29.093137204186746	3.4149841628095015	5.319943065698078
1734600923.2184618	1.0024555259857257	-0.019911051971451668	-0.24995685662806327	-24.384902985668553	1.1484892784607919	4.548867486486662
1734600923.2684617	1.0031231238898048	-0.02124624777960999	-0.22058254884858025	-19.676668767150275	-1.1180056058879577	3.7777919072752315
1734600923.318462	1.003790721793884	-0.02258144358776829	-0.1912082410690977	-14.968434548632079	-3.3845004902366664	3.0067163280638147
1734600923.3684618	1.0044583196979633	-0.023916639395926587	-0.16183393328961518	-10.260200330113886	-5.650995374585376	2.235640748852398
1734600923.4184618	1.0029690094042152	-0.02244824258478342	-0.13274025512373727	-5.0912139376712355	-6.523977549953723	1.2673354328137734
1734600923.4684618	0.9922009750471656	-0.008919173777208245	-0.10485380717342924	2.0598652891899283	-1.4022586442288354	-0.5494252356320357
1734600923.5184617	0.9814329406901162	0.004609895030366688	-0.07696735922312173	9.210944516050965	3.7194602614959607	-2.3661859040778124
1734600923.568462	0.9706649063330668	0.01813896383794162	-0.04908091127281421	16.362023742912005	8.841179167220757	-4.18294657252359
1734600923.6184618	0.9386316655319502	0.012675171944255255	-0.07970403912687081	39.625271956760486	6.435695210570896	-6.605022050548148
1734600923.6684618	0.8903444323805024	-0.007305752118412771	-0.15504877361318148	75.20380486584875	-1.723182115018549	-9.489767962095844
1734600923.7184618	0.8583370421561859	-0.02999440221147253	-0.2152439530062195	94.60860400829213	-9.8808168624742	-11.041491361437384
1734600923.7684617	0.909021014976172	-0.066436597544851	-0.198488920669034	31.861007905532404	-18.03214009451495	-5.8222987884040975
1734600923.818462	0.9597049877961582	-0.10287879287822949	-0.1817338883318485	-30.886588197227326	-26.183463326555696	-0.6031062153708113
1734600923.8684618	0.9530605254626016	-0.12078516792949007	-0.2621524441936146	-24.092826763049413	-18.20504690258044	2.2952364461629067
1734600923.9184618	0.9299768028754748	-0.1333762893406501	-0.3704360883295909	2.6423210333137135	-5.601334370009244	4.528061976408619
1734600923.9684618	0.9439814272849193	-0.16507704208237234	-0.3950039553732579	15.368111787075108	10.479740309178515	-0.1783043726185598
1734600924.0184617	0.9999669443119295	-0.2121476532137517	-0.30556975924689095	8.296204401615627	26.426050768056392	-12.508474404477932
1734600924.068462	0.9887952062462233	-0.19647387144992515	-0.2812253748052029	8.879802658779383	17.777124596889546	-11.236230203860947
1734600924.1184618	0.9776234681805172	-0.1808000896860986	-0.25688099036351486	9.463400915943136	9.128198425722704	-9.963986003243962
1734600924.1684618	0.966451730114811	-0.16512630792227204	-0.2325366059218268	10.046999173106892	0.479272254555859	-8.691741802626975
1734600924.2184618	0.9552799920491046	-0.1494525261584452	-0.20819222148013833	10.630597430270656	-8.16965391661114	-7.419497602009969
1734600924.2684617	0.9441082539833985	-0.13377874439461868	-0.18384783703845028	11.214195687434412	-16.81858008777798	-6.147253401392984
1734600924.318462	0.9128906300671303	0.015963543355710087	-0.04647802513894082	1.4501087946456388	-21.535673114081295	-4.472916531543193
1734600924.3684618	0.9304361737813989	0.021812057927132946	0.04166744447321798	17.475038720344273	-7.791663871237578	-4.0050353658293645
1734600924.4184618	0.9479817174956674	0.02766057249855581	0.1298129140853768	33.49996864604291	5.9523453716061425	-3.537154200115536
1734600924.4684618	0.9713233758042138	0.014829524410243211	0.010442285858455858	29.2796215466127	7.2664263403557126	-4.993046398385295
1734600924.5184617	0.996386774050049	-0.003550300970035985	-0.17057114591702108	19.045400596229968	4.888188329028678	-7.020396834270636
1734600924.568462	1.0214501722958844	-0.021930126350315177	-0.35158457769249796	8.811179645847233	2.5099503177016427	-9.047747270155979
1734600924.6184618	1.035520425967414	-0.04340423014848624	-0.49849312231800325	1.2954959332401186	-0.08871084209960611	-9.88197071374278
1734600924.6684618	0.9995400102541799	-0.07896626893482211	-0.49012558378004184	6.157035823795682	-3.6909361826919826	-5.284008287133
1734600924.7184618	0.9635595945409453	-0.11452830772115863	-0.4817580452420803	11.018575714351332	-7.293161523284423	-0.686045860523139
1734600924.7684617	0.9728726823993985	-0.13043634119969927	-0.3372311489281665	36.93369603234332	-34.124783800301216	0.007441284317408869
