ts_receiver	acc_x	acc_y	acc_z	gyr_x	gyr_y	gyr_z
1734657948.808456	0.967	-0.086	-0.169	1.68	-1.19	-0.14
1734657948.858456	0.9666208209706786	-0.08653085064104997	-0.16892416419413572	1.653457467947501	-1.158148961537001	-0.11876597435800079
1734657948.9084558	0.9662416419413571	-0.08706170128209996	-0.16884832838827143	1.626914935895002	-1.1262979230740022	-0.09753194871600157
1734657948.958456	0.9658624629120357	-0.08759255192314994	-0.16877249258240717	1.600372403842503	-1.0944468846110036	-0.07629792307400235
1734657949.008456	0.9654832838827143	-0.08812340256419991	-0.16869665677654289	1.5738298717900039	-1.0625958461480047	-0.05506389743200313
1734657949.058456	0.9651041048533929	-0.0886542532052499	-0.1686208209706786	1.5472873397375049	-1.0307448076850059	-0.03382987179000392
1734657949.108456	0.9647249258240714	-0.08918510384629988	-0.1685449851648143	1.5207448076850059	-0.998893769222007	-0.012595846148004686
1734657949.1584558	0.96434574679475	-0.08971595448734986	-0.16846914935895002	1.4942022756325068	-0.9670427307590082	0.008638179493994536
1734657949.208456	0.9639665677654287	-0.09024680512839985	-0.16839331355308576	1.4676597435800078	-0.9351916922960094	0.029872205135993757
1734657949.258456	0.9635873887361073	-0.09077765576944982	-0.16831747774722147	1.4411172115275088	-0.9033406538330107	0.05110623077799295
1734657949.308456	0.9632082097067858	-0.0913085064104998	-0.16824164194135718	1.4145746794750098	-0.8714896153700118	0.07234025641999217
1734657949.358456	0.9628290306774644	-0.09183935705154979	-0.1681658061354929	1.3880321474225108	-0.8396385769070129	0.09357428206199142
1734657949.4084558	0.962449851648143	-0.09237020769259977	-0.1680899703296286	1.3614896153700118	-0.8077875384440141	0.11480830770399064
1734657949.458456	0.9620706726188216	-0.09290105833364974	-0.16801413452376432	1.3349470833175128	-0.7759364999810153	0.13604233334598986
1734657949.508456	0.9653978365719702	-0.09028173074242382	-0.16867956731439407	0.9256574479355426	-0.7462151439962084	0.1162151439962084
1734657949.558456	0.9695740492187842	-0.08694076062497262	-0.16951480984375686	0.42868814296467717	-0.7169816554685103	0.08698165546851042
1734657949.608456	0.9681771040842069	-0.08569507198468966	-0.1734753599234483	0.3589476751772438	-0.7729825583924146	0.045672480535861815
1734657949.6584558	0.9622371413436223	-0.08222816910317124	-0.17946979656701903	0.17617215506130968	-1.132685441852009	-0.024742826872445438
1734657949.708456	0.9679449956187804	-0.06025475713406929	-0.17708395405554556	-2.5938503066853653	-2.176687374769319	-0.12986761398588056
1734657949.758456	0.9600635698136942	-0.09675820296815263	-0.18911349870541394	-3.1455501130413976	-3.134902827914007	1.321973981687889
1734657949.808456	0.9521821440086081	-0.1332616488022359	-0.20114304335528227	-3.6972499193974286	-4.093118281058693	2.7738155773616553
1734657949.858456	0.9242605609955667	-0.14538930543169296	-0.25535455921989947	-3.754656010673888	-10.73696464870917	1.6369415849173632
1734657949.9084558	0.8827686774658262	-0.1410107649587053	-0.33812982435209527	-3.477348447384668	-21.230866648969663	-1.252895127254511
1734657949.958456	0.8412767939360858	-0.1366322244857176	-0.4209050894842911	-3.200040884095448	-31.724768649230157	-4.142731839426386
1734657950.008456	0.7997849104063453	-0.1322536840127299	-0.503680354616487	-2.9227333208062274	-42.21867064949065	-7.03256855159826
1734657950.058456	0.758293026876605	-0.12787514353974225	-0.5864556197486824	-2.6454257575170086	-52.712572649751095	-9.922405263770122
1734657950.108456	0.717815767727705	-0.127	-0.6345137274332889	12.24156703881596	-45.00051420534008	-12.142736855565058
1734657950.1584558	0.6745746965196742	-0.12001901365955345	-0.6679511077325769	12.723538318064602	-37.806464644248166	-11.623612595315151
1734657950.208456	0.6369146791655559	-0.11007200362870975	-0.6954346549741575	10.502980937337147	-34.9645338977993	-10.38109322044014
1734657950.258456	0.6059964573463047	-0.10190248299196711	-0.7190336865539094	17.774663918056	-33.89576245413959	-10.558705677649053
1734657950.308456	0.5533413380304142	-0.09088281474160742	-0.7404687410335703	5.697287993751395	-33.29327772818567	-10.510748716804285
1734657950.358456	0.4171170513597091	-0.06664659195970285	-0.8374136321611886	-3.1363973443427895	-42.24396552108905	-12.73379535817898
1734657950.4084558	0.38219778068041554	-0.03356206065980413	-0.8769899076082398	-4.119051516495103	-45.19231070474182	-11.16934424618629
1734657950.458456	0.3660679922701583	-0.019238382485329254	-0.8801454423679633	-3.531204945207556	-44.41162719864156	-8.958253650695465
1734657950.508456	0.34665156300786176	-0.017999035936672028	-0.8689913234300483	-3.126351739312862	-42.18493456622074	-6.905069535086658
1734657950.558456	0.33010375732506037	-0.016444329541537402	-0.8604660461909687	-3.0986280592899	-40.299658738366084	-5.133309203722854
1734657950.608456	0.32548159246613084	-0.01357858732900111	-0.8628695719176119	-4.638733390285211	-39.83374452058599	-4.531503339090233
1734657950.6584558	0.3208594276072013	-0.010712845116464819	-0.8652730976442553	-6.1788387212805205	-39.36783030280589	-3.929697474457612
1734657950.708456	0.31623726274827185	-0.007847102903928527	-0.8676766233708987	-7.718944052275831	-38.9019160850258	-3.3278916098249907
1734657950.758456	0.31161509788934233	-0.004981360691392236	-0.8700801490975419	-9.25904938327114	-38.43600186724571	-2.7260857451923695
1734657950.808456	0.30699293303041286	-0.0021156184788559563	-0.8724836748241853	-10.799154714266445	-37.97008764946561	-2.124279880559751
1734657950.858456	0.30237076817148334	0.0007501237336803475	-0.8748872005508287	-12.339260045261764	-37.504173431685516	-1.522474015927127
1734657950.9084558	0.2977486033125538	0.0036158659462166287	-0.8772907262774721	-13.879365376257066	-37.03825921390543	-0.9206681512945085
1734657950.958456	0.29312643845362435	0.0064816081587529065	-0.8796942520041153	-15.41947070725237	-36.57234499612534	-0.31886228666189
1734657951.008456	0.2885042735946948	0.009347350371289212	-0.8820977777307587	-16.959576038247686	-36.10643077834524	0.2829435779707339
1734657951.058456	0.28388210873576536	0.01221309258382549	-0.8845013034574021	-18.49968136924299	-35.640516560565146	0.8847494426033524
1734657951.108456	0.275283163099055	0.0028839282481623978	-0.9056913271032552	-20.14919644861393	-36.417142888176414	-0.00723217970948653
1734657951.1584558	0.2621573310669786	-0.01919428085781125	-0.948441398012535	-21.40528828452762	-38.853253718613644	-2.9181960617081164
1734657951.208456	0.2577487313318538	-0.009747281425400926	-0.9507506645404575	-20.229661688494335	-39.60271567358486	-3.9027833358859922
1734657951.258456	0.25334013159672897	-0.00030028199299068567	-0.95305993106838	-19.054035092461064	-40.35217762855607	-4.88737061006386
1734657951.308456	0.24893153186160422	0.009146717439419551	-0.9553691975963026	-17.878408496427788	-41.10163958352729	-5.871957884241727
1734657951.358456	0.24452293212647938	0.01859371687182988	-0.9576784641242251	-16.702781900394505	-41.851101538498504	-6.856545158419603
1734657951.4084558	0.23752235663042293	0.025951793263661798	-0.9599184909476055	-15.957668837876064	-42.55325105691265	-8.070980459115434
1734657951.458456	0.22705384283584087	0.030514991584377052	-0.962065878392648	-15.78856207657897	-43.192098821812785	-9.592941310789287
1734657951.508456	0.21658532904125893	0.03507818990509227	-0.9642132658376904	-15.619455315281876	-43.83094658671291	-11.114902162463128
1734657951.558456	0.20611681524667697	0.03964138822580748	-0.9663606532827329	-15.450348553984782	-44.46979435161305	-12.636863014136967
1734657951.608456	0.13232701051422838	0.09715978628780067	-0.9531178056367234	-30.72720459472672	-46.205971645001256	-14.591801026572647
1734657951.6584558	0.012861788256580534	0.13817345311123636	-0.921623924101864	-34.597938711699754	-43.23087915340723	-14.222731055225335
1734657951.708456	-0.11972434258384945	0.15204229524935664	-0.88195903558684	-25.957650059650813	-36.648726674655336	-12.106345744948177
1734657951.758456	-0.25231047342427826	0.16591113738747681	-0.8422941470718164	-17.31736140760195	-30.066574195903506	-9.98996043467104
1734657951.808456	-0.38489660426470707	0.17977997952559696	-0.8026292585567927	-8.677072755553084	-23.484421717151676	-7.873575124393901
1734657951.858456	-0.39278113580523566	0.16623539093991505	-0.8163151934224884	-11.006617943567225	-21.89617514332284	-6.529609217479912
1734657951.9084558	-0.39865546414194364	0.15224889490013416	-0.8308611493038605	-13.512998033895958	-20.388430870234462	-5.198094794492772
1734657951.958456	-0.4045297924786517	0.13826239886035316	-0.8454071051852328	-16.019378124224716	-18.88068659714607	-3.866580371505621
1734657952.008456	-0.4179064397668205	0.13797069866295908	-0.8518365246486254	-15.69065140350829	-19.376901567354878	-4.211839210140188
1734657952.058456	-0.44211224484380846	0.1574466337823746	-0.8465501994019269	-11.26961413140096	-22.765714278133185	-6.977421997097196
1734657952.108456	-0.46631804992079656	0.17692256890179034	-0.8412638741552283	-6.848576859293592	-26.15452698891152	-9.743004784054229
1734657952.1584558	-0.49052385499778445	0.1963985040212059	-0.8359775489085298	-2.4275395871862617	-29.543339699689824	-12.508587571011237
1734657952.208456	-0.498386912340973	0.20323059330985113	-0.8332804906576599	-1.398448244548458	-30.574866290605538	-13.366507185653388
1734657952.258456	-0.5025422267066403	0.20719412393556463	-0.8311708695181672	-1.138900916477543	-31.071586177086083	-13.791627809217818
1734657952.308456	-0.5066975410723077	0.2111576545612781	-0.8290612483786746	-0.8793535884066277	-31.568306063566627	-14.216748432782248
1734657952.358456	-0.5108528554379751	0.21512118518699164	-0.8269516272391819	-0.6198062603357102	-32.06502595004718	-14.641869056346682
1734657952.4084558	-0.5150081698036425	0.2190847158127051	-0.8248420060996892	-0.3602589322647949	-32.56174583652772	-15.066989679911112
1734657952.458456	-0.5191634841693099	0.22304824643841864	-0.8227323849601965	-0.10071160419387737	-33.05846572300827	-15.492110303475545
1734657952.508456	-0.5233187985349772	0.22701177706413211	-0.8206227638207039	0.1588357238770377	-33.55518560948882	-15.917230927039977
1734657952.558456	-0.5274741129006446	0.2309753076898456	-0.8185131426812112	0.4183830519479528	-34.05190549596936	-16.342351550604405
1734657952.608456	-0.531629427266312	0.23493883831555912	-0.8164035215417186	0.6779303800188703	-34.548625382449906	-16.76747217416884
1734657952.6584558	-0.5357847416319793	0.2389023689412726	-0.8142939004022259	0.9374777080897856	-35.045345268930454	-17.19259279773327
1734657952.708456	-0.5399400559976467	0.24286589956698612	-0.8121842792627332	1.197025036160703	-35.542065155411	-17.617713421297704
1734657952.758456	-0.5440953703633141	0.2468294301926996	-0.8100746581232405	1.4565723642316184	-36.03878504189154	-18.042834044862133
1734657952.808456	-0.5482506847289815	0.25079296081841307	-0.8079650369837479	1.7161196923025337	-36.53550492837209	-18.467954668426565
1734657952.858456	-0.5524059990946488	0.2547564914441266	-0.8058554158442552	1.975667020373449	-37.03222481485263	-18.893075291990996
1734657952.9084558	-0.5565613134603163	0.2587200220698401	-0.8037457947047626	2.2352143484443685	-37.52894470133319	-19.31819591555543
1734657952.958456	-0.561909049074971	0.2603223508129044	-0.7981240518780894	2.4580989960756345	-38.0837571803425	-19.524218070638586
1734657953.008456	-0.5729785313897312	0.2505946239302363	-0.775649648390546	2.5050604361988595	-38.91732274252975	-18.678912148420537
1734657953.058456	-0.5840480137044913	0.24086689704756825	-0.7531752449030026	2.5520218763220845	-39.750888304716995	-17.833606226202484
1734657953.108456	-0.5951174960192516	0.23113917016490018	-0.7307008414154591	2.5989833164453096	-40.58445386690424	-16.98830030398443
1734657953.1584558	-0.6061869783340119	0.22141144328223195	-0.7082264379279153	2.6459447565685354	-41.4180194290915	-16.142994381766364
1734657953.208456	-0.6172564606487722	0.2116837163995639	-0.6857520344403718	2.6929061966917605	-42.25158499127875	-15.297688459548313
1734657953.258456	-0.6268743833888456	0.20120197315569407	-0.6694739605697684	2.221108867691863	-42.450074337467214	-14.5705419295585
1734657953.308456	-0.6310356941393239	0.1878857787541634	-0.6764887415491461	-0.2007739890865281	-40.26122488271561	-14.287572798525973
1734657953.358456	-0.6351970048898022	0.17456958435263273	-0.6835035225285239	-2.622656845864919	-38.072375427964005	-14.004603667493447
1734657953.4084558	-0.6393583156402807	0.16125338995110183	-0.6905183035079018	-5.044539702643354	-35.883525973212365	-13.721634536460915
1734657953.458456	-0.643519626390759	0.14793719554957116	-0.6975330844872795	-7.466422559421744	-33.69467651846076	-13.438665405428388
1734657953.508456	-0.6476809371412373	0.1346210011480405	-0.7045478654666573	-9.888305416200135	-31.505827063709155	-13.155696274395861
1734657953.558456	-0.6518422478917157	0.1213048067465098	-0.711562646446035	-12.310188272978527	-29.31697760895755	-12.872727143363333
1734657953.608456	-0.6560035586421942	0.10798861234497889	-0.7185774274254129	-14.73207112975696	-27.128128154205907	-12.589758012330801
1734657953.6584558	-0.6601648693926725	0.09467241794344822	-0.7255922084047907	-17.153953986535353	-24.939278699454302	-12.306788881298274
1734657953.708456	-0.6821067210721609	0.14146887751287715	-0.6208068096056903	-10.391160481779735	-15.173467626238894	-8.741007621753248
1734657953.758456	-0.6893696504214931	0.16062235884856904	-0.5747324624996516	-5.379377647522601	-7.4410027037681346	-5.2198109958547425
1734657953.808456	-0.683190037072285	0.14976628134320336	-0.5895969378531523	-3.2165129752997443	-2.4722595378507624	-2.308712058646682
1734657953.858456	-0.6770104237230767	0.13891020383783748	-0.6044614132066533	-1.0536483030768498	2.496483628066697	0.6023868785614299
1734657953.9084558	-0.6708308103738686	0.12805412633247176	-0.619325888560154	1.1092163691460062	7.465226793984069	3.5134858157694904
1734657953.958456	-0.6646511970246604	0.11719804882710609	-0.6341903639136548	3.272081041368862	12.433969959901443	6.42458475297755
1734657954.008456	-0.6584715836754522	0.10634197132174039	-0.6490548392671555	5.434945713591718	17.402713125818813	9.335683690185611
1734657954.058456	-0.5970159719699545	0.12559361121201823	-0.7120178937623775	6.09355590189484	21.420033631367403	8.779632515790336
1734657954.108456	-0.49845591705897424	0.1513058811457748	-0.7931999794781718	8.09673324495274	25.119704403574143	7.434205480970125
1734657954.1584558	-0.3953957606660452	0.13842259564997156	-0.8445505693661021	14.286827141158124	27.617853201285893	7.164380433118562
1734657954.208456	-0.2778658867337295	0.0669909075751681	-0.8700090924248319	21.727209081309468	23.970391430000635	1.821591174345583
1734657954.258456	-0.2287467975641319	0.0636607998348564	-0.8733392001651435	31.692556494192225	35.101276551992484	2.40436002890013
1734657954.308456	-0.15969932396072914	0.022461119769763983	-0.890081539264887	29.56585716677363	38.22463754569045	2.3792865314322387
1734657954.358456	-0.08571848425298753	-0.02811335257281644	-0.9101441398635967	24.445714305644618	39.36569795474206	2.20373877619353
1734657954.4084558	-0.03566586616750199	-0.05714403596858135	-0.9240543136754048	20.221650356013892	41.68173901226097	2.219834964398611
1734657954.458456	-0.020181131661291755	-0.05505150427855294	-0.929076389731473	17.292105989974118	45.69521479373546	2.512789401002588
1734657954.508456	-0.0036884942626804742	-0.05313115057373195	-0.934163938217165	14.344260543669797	49.679345403366646	2.7850816222379904
1734657954.558456	0.06320257242418685	-0.059820257242418684	-0.9425253215530234	10.48130144250321	52.19612178746003	2.0241957386748743
1734657954.608456	0.11898193032995674	-0.08069340164027913	-0.9538467008201396	19.311912992254825	53.2373665164218	0.23575426221655205
1734657954.6584558	0.21216933277038974	-0.03254385041321824	-0.9213386655407795	1.553513297523064	44.52235494538565	-0.9583782375150423
1734657954.708456	0.2159822054596105	-0.0422878583967824	-0.9289644109192211	-3.221050614423377	38.620875327513964	2.1554677920152456
1734657954.758456	0.2854109962403511	-0.05415677736003901	-0.9405890037596488	-5.070446393694668	18.757827972747204	11.58025584797269
1734657954.808456	0.2929546883701349	-0.054994965374459436	-0.933045311629865	-7.104449308688227	17.623480193231565	10.993524237878395
1734657954.858456	0.30049838049991884	-0.05583315338887987	-0.9255016195000811	-9.13845222368182	16.489132413715907	10.40679262778409
1734657954.9084558	0.3080420726297026	-0.056671341403300296	-0.9179579273702974	-11.172455138675378	15.35478463420027	9.820061017689795
1734657954.958456	0.315499315315598	-0.07049794594679398	-0.9005022062052954	-7.350702942652726	13.405228988894448	7.280351471326362
1734657955.008456	0.32152675970374617	-0.08203702323804063	-0.8844187131639771	-2.8826759703746174	12.02595767555906	4.84404232444094
1734657955.058456	0.32542233951369154	-0.07702842062525377	-0.8803840055036767	-3.2722339513691523	12.347343009879552	4.522656990120449
1734657955.108456	0.32931791932363697	-0.07201981801246679	-0.876349297843376	-3.661791932363694	12.668728344200048	4.201271655799952
1734657955.1584558	0.3332134991335823	-0.06701121539967991	-0.8723145901830754	-4.051349913358229	12.99011367852054	3.879886321479461
1734657955.208456	0.3371090789435276	-0.06200261278689304	-0.868279882522775	-4.440907894352764	13.31149901284103	3.55850098715897
1734657955.258456	0.34100465875347297	-0.05699401017410617	-0.8642451748624744	-4.830465875347299	13.632884347161522	3.237115652838479
1734657955.308456	0.34490023856341834	-0.051985407561319294	-0.8602104672021739	-5.220023856341833	13.954269681482014	2.915730318517988
1734657955.358456	0.3508098578070952	-0.04812772080941342	-0.8566168375717598	-4.954830621608234	14.528876287502172	2.6003969556070707
1734657955.4084558	0.36456428433016114	-0.048752922015007326	-0.854741233954978	-2.1393411924170107	16.08979529746829	2.3086363929965814
1734657955.458456	0.37831871085322705	-0.04937812322060123	-0.8528656303381963	0.6761482367742122	17.650714307434406	2.016875830386092
1734657955.508456	0.392073137376293	-0.050003324426195137	-0.8509900267214145	3.4916376659654356	19.211633317400526	1.7251152677756028
1734657955.558456	0.4058275638993589	-0.05062852563178904	-0.8491144231046328	6.307127095156658	20.772552327366643	1.4333547051651134
1734657955.608456	0.42531019269103026	-0.051	-0.8397744053156143	7.428199689922462	24.027157829457444	1.6678524031007895
1734657955.6584558	0.45039082563382965	-0.05411589382568128	-0.8220754773429615	6.158302507725772	28.88773468245461	2.36018894267154
1734657955.708456	0.4656836611535067	-0.06816876970862776	-0.8133957598858476	5.203533587443232	30.681542956924837	1.955135461339553
1734657955.758456	0.4809764966731837	-0.08222164559157422	-0.8047160424287336	4.2487646671606925	32.47535123139506	1.5500819800075667
1734657955.808456	0.4880044665169894	-0.07676859660396619	-0.8005528260173954	4.651771163066215	33.079166805501565	1.8748960589400419
1734657955.858456	0.4929957445120549	-0.06650874739188714	-0.7975026005759664	5.389371133448114	33.389735214083416	2.3795697228855515
1734657955.9084558	0.4979870225071203	-0.05624889817980827	-0.7944523751345376	6.12697110383	33.70030362266527	2.8842433868310526
1734657955.958456	0.5166335283085294	-0.053804360390534	-0.7827620743080234	7.544055672346236	33.24611911320426	3.0954312995849165
1734657956.008456	0.591293622700125	-0.0834181408475356	-0.7356302828764575	11.748378306241674	29.654926863418574	2.1027440110262714
1734657956.058456	0.6659537170917206	-0.1130319213045372	-0.6884984914448915	15.952700940137113	26.063734613632885	1.1100567224676263
1734657956.108456	0.7053497457247299	-0.11533086023325989	-0.6389730207264717	11.149524759220242	31.34071130942313	3.8052848341185537
1734657956.1584558	0.7358452679700809	-0.11073564455245356	-0.5888433951176753	4.072892610778487	38.85597768194185	7.431327753154824
1734657956.208456	0.7825114196263193	-0.11012212366282353	-0.5338473668520672	-3.107250717444706	46.74824184709882	11.612519175581175
1734657956.258456	0.7890410371746326	-0.11303961235462306	-0.52565061290844	-3.360099737400665	47.26366484931674	11.59306925096918
1734657956.308456	0.7955706547229457	-0.11595710104642258	-0.5174538589648128	-3.6129487573566235	47.779087851534655	11.573619326357182
1734657956.358456	0.8021002722712591	-0.11887458973822215	-0.5092571050211854	-3.865797777312587	48.29451085375258	11.554169401745185
1734657956.4084558	0.8086298898195723	-0.12179207843002168	-0.5010603510775581	-4.118646797268545	48.80993385597049	11.534719477133189
1734657956.458456	0.8151595073678856	-0.12470956712182121	-0.4928635971339309	-4.371495817224504	49.325356858188414	11.515269552521191
1734657956.508456	0.8216891249161987	-0.12762705581362072	-0.4846668431903037	-4.6243448371804625	49.84077986040633	11.495819627909196
1734657956.558456	0.82999883688536	-0.13031156746860884	-0.4727812449008019	-5.601518944142638	50.385405906115054	11.55360781445884
1734657956.608456	0.8460656094163534	-0.131980842536764	-0.444820887509203	-9.73506133166185	51.0572891210475	11.947974049310496
1734657956.6584558	0.8621323819473465	-0.13365011760491913	-0.4168605301176046	-13.86860371918099	51.729172335979946	12.342340284162145
1734657956.708456	0.8781991544783397	-0.13531939267307427	-0.3889001727260062	-18.00214610670013	52.40105555091239	12.736706519013794
1734657956.758456	0.8942659270093328	-0.1369886677412294	-0.3609398153344078	-22.135688494219266	53.072938765844825	13.131072753865443
1734657956.808456	0.9058167375812838	-0.1393212636954791	-0.3378065764274418	-23.940556031205762	52.5435543558292	13.167681496629765
1734657956.858456	0.9104260056005732	-0.14267345861859862	-0.3220931627253189	-22.165987843779355	50.167686204068225	12.654376649027085
1734657956.9084558	0.9150352736198624	-0.14602565354171806	-0.30637974902319665	-20.39141965635301	47.79181805230733	12.141071801424424
1734657956.958456	0.9196445416391518	-0.1493778484648376	-0.2906663353210738	-18.616851468926598	45.41594990054635	11.627766953821743
1734657957.008456	0.9242538096584411	-0.15273004338795715	-0.2749529216189509	-16.84228328150019	43.040081748785376	11.114462106219062
1734657957.058456	0.926509036485911	-0.14738252568315832	-0.24202106624672245	-5.4089686878436325	23.717969574884627	3.2233683330272322
1734657957.108456	0.9338496405075669	-0.16600118785261916	-0.2005883088579745	2.1410984703748714	3.744415756563459	-4.056157549341095
1734657957.1584558	0.9650652312806528	-0.120608612316083	-0.11473950081740887	-3.4041398332417496	0.8475805002747501	-4.282161597821155
1734657957.208456	0.9654231082699941	-0.11846135038003541	-0.12428288719984262	-3.6463032626960064	0.12109021191198088	-3.964844000605233
1734657957.258456	0.9657809852593353	-0.11631408844398781	-0.13382627358227636	-3.8884666921502626	-0.6054000764507883	-3.6475264033893104
1734657957.308456	0.9661388622486766	-0.1141668265079403	-0.1433696599647098	-4.1306301216045105	-1.3318903648135318	-3.3302088061734
1734657957.358456	0.9664967392380178	-0.1120195645718927	-0.15291304634714353	-4.372793551058766	-2.058380653176301	-3.0128912089574778
1734657957.4084558	0.9668546162273591	-0.10987230263584519	-0.16245643272957694	-4.614956980513014	-2.7848709415390442	-2.6955736117415663
1734657957.458456	0.9672124932167003	-0.10772504069979759	-0.17199981911201068	-4.857120409967271	-3.5113612299018135	-2.378256014525644
1734657957.508456	0.9675703702060416	-0.10557777876374999	-0.18154320549444444	-5.099283839421528	-4.237851518264582	-2.060938417309722
1734657957.558456	0.9679282471953828	-0.10343051682770248	-0.19108659187687788	-5.3414472688757755	-4.964341806627326	-1.743620820093811
1734657957.608456	0.965341876945353	-0.10388604101821565	-0.1863546923633826	-3.3742566835593855	-3.342348168659769	-0.9047141090613021
1734657957.6584558	0.962017162968404	-0.10499427901053197	-0.17804290742101014	-0.8530152510397411	-1.1314133739886962	0.06499413421548406
1734657957.708456	0.9586924489914549	-0.10610251700284834	-0.1697311224786374	1.6682261814799926	1.0795214206824548	1.0347023774923045
1734657957.758456	0.9560432860141544	-0.10684128461476677	-0.16287014195753646	3.7706004198163208	2.8528298810520427	1.8311100769663256
1734657957.808456	0.9562709019972749	-0.10600669267665823	-0.16218729400817491	4.08926279618504	2.762542207747572	1.889531512633924
1734657957.858456	0.9564985179803955	-0.10517210073854964	-0.16150444605881334	4.407925172553771	2.6722545344430984	1.9479529483015248
1734657957.9084558	0.956726133963516	-0.1043375088004411	-0.16082159810945182	4.726587548922491	2.5819668611386275	2.0063743839691233
1734657957.958456	0.9569537499466365	-0.10350291686233251	-0.16013875016009024	5.0452499252912215	2.491679187834154	2.064795819636724
1734657958.008456	0.9571813659297571	-0.10266832492422394	-0.15945590221072867	5.363912301659953	2.40139151452968	2.1232172553043247
1734657958.058456	0.9574089819128776	-0.10183373298611538	-0.15877305426136712	5.682574678028672	2.3111038412252096	2.181638690971923
1734657958.108456	0.9576365978959981	-0.10099914104800681	-0.15809020631200557	6.001237054397404	2.2208161679207357	2.240060126639524
1734657958.1584558	0.9578642138791186	-0.10016454910989825	-0.15740735836264402	6.319899430766123	2.1305284946162653	2.2984815623071224
1734657958.208456	0.9580918298622392	-0.09932995717178966	-0.15672451041328245	6.638561807134854	2.0402408213117917	2.356902997974723
1734657958.258456	0.9583194458453597	-0.09849536523368109	-0.1560416624639209	6.957224183503584	1.9499531480073178	2.415324433642324
1734657958.308456	0.9585470618284802	-0.09766077329557254	-0.15535881451455935	7.275886559872304	1.8596654747028472	2.4737458693099224
1734657958.358456	0.9587746778116008	-0.09682618135746396	-0.15467596656519778	7.5945489362410346	1.7693778013983734	2.532167304977523
1734657958.4084558	0.9590201547960305	-0.09605206655641232	-0.15399664086732823	7.908001316060301	1.6770607589122075	2.5929392410877923
1734657958.458456	0.9610201392194713	-0.10121869298363433	-0.1536633101300881	7.709669527402425	1.385396363827095	2.884603636172905
1734657958.508456	0.9630201236429121	-0.1063853194108565	-0.15332997939284795	7.511337738744541	1.093731968741972	3.1762680312580276
1734657958.558456	0.965020108066353	-0.1115519458380785	-0.15299664865560783	7.313005950086664	0.8020675736568595	3.46793242634314
1734657958.608456	0.9670200924897938	-0.11671857226530066	-0.1526633179183677	7.1146741614287805	0.5104031785717367	3.7595968214282633
1734657958.6584558	0.9690200769132347	-0.12188519869252284	-0.15232998718112756	6.916342372770897	0.2187387834866139	4.051261216513386
1734657958.708456	0.9709749211832839	-0.12701393267595337	-0.15201950574633472	6.725851723900411	-0.07234068956016465	4.342925861950206
1734657958.758456	0.9684747267245627	-0.1284029295974652	-0.15396410143645126	7.309230430935375	-0.3056921723741499	4.634615215467687
1734657958.808456	0.9659745322658415	-0.12979192651897695	-0.1559086971265677	7.892609137970317	-0.539043655188127	4.926304568985159
1734657958.858456	0.9634743378071202	-0.13118092344048876	-0.15785329281668428	8.47598784500528	-0.7723951380021123	5.2179939225026395
1734657958.9084558	0.9555619145878039	-0.15300848923979748	-0.18339695524621644	8.559088117505741	-8.523883116423374	4.014282801393907
1734657958.958456	0.9409906496252162	-0.19249298721891211	-0.2390374014991354	10.370799682875347	-27.517587313409077	0.462630421551638
1734657959.008456	0.7597911804609021	-0.14290610583435892	-0.49432645861654867	12.475301221143328	-50.639918588880185	-9.488153324301734
1734657959.058456	0.45972702902210655	-0.07109785210709878	-0.8303917062902649	-4.1726014100123425	-51.38634847248663	-16.177089809836616
1734657959.108456	0.41084046777264005	-0.06106983954310565	-0.8500298975614181	-6.980444927930417	-48.34451799474205	-14.553805276040228
1734657959.1584558	0.3619539065231736	-0.051041826979112526	-0.8696680888325713	-9.788288445848492	-45.302687516997466	-12.930520742243841
1734657959.208456	0.31306734527370883	-0.04101381441511976	-0.8893062801037238	-12.596131963766467	-42.26085703925299	-11.307236208447511
1734657959.258456	0.2532681534330264	-0.03283414522746421	-0.9134585933993252	-13.702236260404488	-36.79983330577113	-10.578881869797756
1734657959.308456	0.15005128871459283	-0.032008410309716746	-0.9555710742044461	-8.037694724656856	-21.713656358524887	-13.411152637671572
1734657959.358456	0.10788407530024235	0.024219733773138012	-0.956	-13.618755387395334	-23.38084809384641	-17.492855434690398
1734657959.4084558	0.09892166302802596	0.03783063455143187	-0.9580218818224513	-12.803474850540653	-24.7395929900107	-18.251129102990454
1734657959.458456	0.09759071258123476	0.04132437947425876	-0.9605174139101847	-10.462665752246632	-25.985695345818957	-18.227837470171607
1734657959.508456	0.09625976213444351	0.04481812439708578	-0.9630129459979184	-8.12185665395253	-27.23179770162726	-18.20454583735276
1734657959.558456	0.09492881168765231	0.04831186931991267	-0.9655084780856519	-5.78104755565851	-28.47790005743552	-18.181254204533914
1734657959.608456	0.09359786124086107	0.05180561424273969	-0.9680040101733854	-3.4402384573644067	-29.724002413243824	-18.157962571715068
1734657959.6584558	0.09226691079406982	0.05529935916556671	-0.970499542261119	-1.0994293590703048	-30.970104769052128	-18.13467093889622
1734657959.708456	0.001924125660504955	0.09665517015818105	-0.9787448219922891	-13.35068861307965	-40.908483036512095	-14.449447461134998
1734657959.758456	-0.03538896356117545	0.08979614640419568	-0.9617344430824053	-10.181819638738409	-41.75351476300309	-11.971968081195481
1734657959.808456	-0.07270205278285453	0.08293712265021055	-0.9447240641725222	-7.01295066439728	-42.598546489494055	-9.494488701256055
1734657959.858456	-0.1054586398083252	0.07745863980832521	-0.9311083795367859	-4.604424860237134	-43.36478018546466	-7.4650421519215735
1734657959.9084558	-0.10887095955384356	0.08087095955384356	-0.9393548189217886	-7.0925746746775955	-43.62354776616647	-8.320965688089093
1734657959.958456	-0.11228327929936179	0.08428327929936179	-0.947601258306791	-9.58072448911797	-43.88231534686827	-9.17688922425658
1734657960.008456	-0.11569559904488014	0.08769559904488013	-0.9558476976917937	-12.068874303558431	-44.14108292757008	-10.0328127604241
1734657960.058456	-0.11399136069114471	0.08599136069114471	-0.9439568034557235	-8.87810655147588	-43.95919366450684	-12.957458603311734
1734657960.108456	-0.18129050343295494	0.09984380727425649	-0.9354783874131756	-5.122789695137832	-42.38756171107147	-15.562674355946113
1734657960.1584558	-0.3332130788408233	0.1348370912862243	-0.9441127385867282	-10.430040375756064	-40.784746556572884	-14.777536472606034
1734657960.208456	-0.35998220626657906	0.1340005560541694	-0.9190166816250821	-33.794469407048574	-46.406263315981604	-10.50284143680565
1734657960.258456	-0.44513327233504024	0.13234692675077592	-0.8222952149203913	-7.8898114521663985	-43.574979377580696	-8.995703343206085
1734657960.308456	-0.47118980535455285	0.13974711317322563	-0.7803080831149682	-0.9780484970871297	-35.40332331658533	-6.185429558221346
1734657960.358456	-0.4815530826208088	0.14955021328995427	-0.752859402788128	0.8845405250913125	-25.815891402424715	-3.0288313206347235
1734657960.4084558	-0.4919163598870648	0.15935331340668293	-0.7254107224612878	2.747129547269755	-16.228459488264104	0.12776691695190046
1734657960.458456	-0.5546938198670327	0.14550830405876675	-0.7386033216235067	5.65405605199674	4.460995368859539	2.000753592933148
1734657960.508456	-0.5585518634941355	0.15389535542203384	-0.7419581421688135	4.3976757577793295	4.355318521682374	1.4488856132301728
1734657960.558456	-0.5624099071212383	0.16228240678530065	-0.7453129627141203	3.141295463561963	4.249641674505212	0.8970176335272175
1734657960.608456	-0.5662679507483411	0.17066945814856774	-0.7486677832594271	1.8849151693445516	4.1439648273280465	0.34514965382424245
1734657960.6584558	-0.570125994375444	0.17905650951183483	-0.752022603804734	0.6285348751271407	4.038287980150881	-0.2067183258787324
1734657960.708456	-0.5739840380025467	0.18744356087510164	-0.7553774243500406	-0.6278454190902263	3.9326111329737197	-0.7585863055816877
1734657960.758456	-0.5774799450578256	0.19364004120663078	-0.7598597870990743	-1.2362427862182852	3.497240382498157	-1.4125745205666391
1734657960.808456	-0.5796788399232486	0.19199087005756346	-0.7683805047025888	0.4761465902299393	1.881052656412192	-2.432312014406593
1734657960.858456	-0.5818777347886719	0.1903416989084961	-0.7769012223061036	2.1885359666782254	0.2648649303261701	-3.4520495082465836
1734657960.9084558	-0.584076629654095	0.1886925277594287	-0.7854219399096183	3.9009253431265103	-1.351322795759852	-4.4717870020865735
1734657960.958456	-0.5880105188622009	0.1875144324415805	-0.7941470161192468	4.035376659662919	-2.567037719611969	-5.341866478161747
1734657961.008456	-0.5932003951578397	0.18667735561970328	-0.8030200304311453	3.027536166122738	-3.4928446846081824	-6.103606386070024
1734657961.058456	-0.5983902714534783	0.18584027879782608	-0.8118930447430436	2.0196956725825923	-4.418651649604363	-6.8653462939782735
1734657961.108456	-0.6035801477491172	0.18500320197594886	-0.8207660590549423	1.0118551790424108	-5.344458614600576	-7.62708620188655
1734657961.1584558	-0.608770024044756	0.1841661251540716	-0.8296390733668408	0.004014685502228943	-6.2702655795967885	-8.388826109794827
1734657961.208456	-0.6139599003403946	0.1833290483321944	-0.8385120876787391	-1.0038258080379165	-7.196072544592969	-9.150566017703076
1734657961.258456	-0.6063823999872731	0.17692572630775144	-0.7954305683594277	-11.321313697339308	-20.634874122565016	-13.985457690212254
1734657961.308456	-0.5984088646116855	0.1666762430882753	-0.7491255323099882	-20.653127816295346	-33.11794338532968	-18.726265814554246
1734657961.358456	-0.6018625212313532	0.15607709001412287	-0.7469818833736428	-19.802813738211654	-32.4510303829111	-19.501552179865847
1734657961.4084558	-0.6053161778510209	0.1454779369399704	-0.7448382344372974	-18.952499660127962	-31.78411738049252	-20.276838545177448
1734657961.458456	-0.6087698344706884	0.13487878386581836	-0.742694585500952	-18.102185582044303	-31.117204378073964	-21.05212491048902
1734657961.508456	-0.612223491090356	0.1242796307916659	-0.7405509365646066	-17.25187150396061	-30.450291375655382	-21.827411275800618
1734657961.558456	-0.6156771477100236	0.11368047771751383	-0.7384072876282612	-16.401557425876952	-29.783378373236825	-22.602697641112194
1734657961.608456	-0.6191308043296913	0.1030813246433614	-0.7362636386919158	-15.55124334779326	-29.116465370818243	-23.37798400642379
1734657961.6584558	-0.6225844609493589	0.09248217156920895	-0.7341199897555704	-14.700929269709572	-28.44955236839966	-24.153270371735392
1734657961.708456	-0.6259494113696559	0.08231732868124968	-0.7319126196384964	-13.728331592113362	-27.792897348828802	-24.938671803563388
1734657961.758456	-0.6213658095679006	0.11106901271044217	-0.7239954892536463	-1.7984661753629076	-28.055412724747516	-26.63043755948399
1734657961.808456	-0.6167822077661453	0.13982069673963365	-0.7160783588687964	10.131399241387122	-28.317928100666222	-28.32220331540453
1734657961.858456	-0.6368955576802372	0.13215963641467962	-0.6899163112828507	11.217488199632836	-25.592248132149216	-23.312614953929305
1734657961.9084558	-0.6727207634020451	0.10133329660754256	-0.6521471021497819	5.4049179999627555	-20.965520013348282	-14.039718682214831
1734657961.958456	-0.7085459691238518	0.07050695680040658	-0.6143778930167143	-0.4076521997071172	-16.338791894547512	-4.766822410500684
1734657962.008456	-0.7440298047453695	0.04027250052909279	-0.5778430485118808	-6.126022590278742	-11.567163297459176	4.457389545137544
1734657962.058456	-0.7469065113617658	0.06657381816471622	-0.6592127499470908	-2.8465770475869476	7.0451285106249575	9.031353065207679
1734657962.108456	-0.7497832179781623	0.09287513580034057	-0.7405824513823036	0.4328684951049633	25.657420318709754	13.605316585277976
1734657962.1584558	-0.7422587781266173	0.11128435156115221	-0.7688487697928048	2.9531213539570116	31.569700057654373	15.415356651064728
1734657962.208456	-0.7271099389076685	0.1239083842436096	-0.7581884755276186	4.916859771228161	28.172432595775284	15.199345425164902
1734657962.258456	-0.711961099688719	0.13653241692606743	-0.7475281812624319	6.880598188499381	24.775165133896074	14.983334199265068
1734657962.308456	-0.6966858597609802	0.1491198693017312	-0.7371302028622253	8.836637032395455	21.455444112494664	14.759583771021976
1734657962.358456	-0.6713376554308244	0.15879221042771172	-0.7476363664990662	10.17909127488068	24.3154553247458	13.919090680074705
1734657962.4084558	-0.6459894511006685	0.16846455155369225	-0.7581425301359072	11.521545517365908	27.175466536996932	13.078597589127433
1734657962.458456	-0.6206412467705137	0.17813689267967242	-0.7686486937727477	12.863999759851087	30.035477749247967	12.23810449818019
1734657962.508456	-0.5952930424403579	0.18780923380565293	-0.7791548574095886	14.206454002336312	32.8954889614991	11.397611407232919
1734657962.558456	-0.5699448381102029	0.1974815749316331	-0.7896610210464291	15.54890824482149	35.755500173750136	10.557118316285676
1734657962.608456	-0.5444827968932235	0.20658888983820328	-0.8003448020711844	16.867679216828567	38.525905119742774	9.684048493205625
1734657962.6584558	-0.5119808932080494	0.1807540433192187	-0.8220127378613005	16.72183734131817	35.75490948504523	6.79637935809977
1734657962.708456	-0.47947898952287643	0.15491919680023505	-0.8436806736514157	16.57599546580778	32.9839138503478	3.908710222994017
1734657962.758456	-0.41993674382508134	0.15369647124971322	-0.8714391710287708	11.363504106052389	27.157403097951164	8.529439882164013
1734657962.808456	-0.34858651577383554	0.166459419414807	-0.8814241934330634	11.170414902322182	26.644059409086935	13.543767090638978
1734657962.858456	-0.13772328205534629	0.10249998969153791	-0.9522766973277296	9.434369534533415	42.112475973356624	14.142718404567436
1734657962.9084558	0.01942592419316916	0.016857829672505695	-0.9381415835381804	14.43986277059724	44.14959531361516	13.793497946237402
1734657962.958456	0.12140361737111977	-0.0015706330399459616	-0.9338165159428701	15.544237982396758	51.022546885578926	11.798661588806125
1734657963.008456	0.1927667169979272	0.013151965700571873	-0.9343445900518943	10.620388952023578	53.11297042906076	12.021788473611867
1734657963.058456	0.270469447811314	-0.010577014326305959	-0.9321124744173108	6.200219226260258	51.756184870944026	12.298264212053173
1734657963.108456	0.29172141037614036	-0.004743142249686964	-0.942530103125559	4.479226963657655	49.77266836489357	12.619127176267217
1734657963.1584558	0.3083662205411695	-0.0014260037823685611	-0.9490986616235085	2.8359949083502682	47.771810081466334	12.702541751527468
1734657963.208456	0.305011435103089	-0.009240137164868188	-0.9390343053092668	1.6160434355415931	45.687186969337525	11.746392227324137
1734657963.258456	0.30665330483560965	-0.043719401547802926	-0.9439599145068289	12.534477156804261	42.41165685295872	9.792567245624502
1734657963.308456	0.33213782099984807	-0.032808155855373125	-0.9274696774606322	11.668003902782331	40.51603067842833	9.843065123681411
1734657963.358456	0.3640045889682424	-0.009746679036140397	-0.9052467997984626	7.646920944665208	38.989780212573656	10.430084533625516
1734657963.4084558	0.38266688924806025	-0.00615987793416224	-0.8918334446240301	5.378247639496802	37.380467420926536	10.838294381589455
1734657963.458456	0.3818421772078226	-0.03131359516141101	-0.8914210886039113	5.695761774988303	35.64857213642744	10.982618988631048
1734657963.508456	0.3810174651675849	-0.05646731238866068	-0.8910087325837924	6.013275910479814	33.91667685192829	11.126943595672644
1734657963.558456	0.4034067825489669	-0.050168663857022296	-0.8726920191368197	5.446167763989872	34.740748354015196	11.072616776398988
1734657963.608456	0.4262983464275544	-0.04318952852818465	-0.8539879364555348	4.85992039636751	35.62011940544873	11.01399203963675
1734657963.6584558	0.44918991030614186	-0.036210393199347005	-0.83528385377425	4.273673028745147	36.49949045688228	10.955367302874516
1734657963.708456	0.4648975766921357	-0.032907536678847514	-0.8227624499833898	3.4175546932562395	37.40539017170511	11.018178967984413
1734657963.758456	0.4696807756727142	-0.03519515358260245	-0.8196429723873603	2.15104678926828	38.35163170916738	11.265657523936083
1734657963.808456	0.47446397465329254	-0.0374827704863573	-0.8165234947913309	0.884538885280366	39.297873246629614	11.513136079887744
1734657963.858456	0.47924717363387104	-0.03977038739011224	-0.8134040171953015	-0.3819690187075935	40.24411478409188	11.760614635839415
1734657963.9084558	0.48403037261444953	-0.04205800429386717	-0.810284539599272	-1.6484769226955533	41.19035632155415	12.008093191791085
1734657963.958456	0.5040324144887132	-0.04447537936725835	-0.804901723979838	-1.1716599614885137	41.91278001283716	12.064099308574184
1734657964.008456	0.534688334797337	-0.04698359102887303	-0.7979344693642416	0.5255632628707487	42.478521087623584	11.986066056879505
1734657964.058456	0.5653442551059596	-0.04949180269048761	-0.7909672147486455	2.2227864872299508	43.044262162409986	11.90803280518483
1734657964.108456	0.596	-0.052000039769232495	-0.7839999411415359	3.9199859694147743	43.60998786243024	11.829996213969066
1734657964.1584558	0.596	-0.05895021687488089	-0.7737136790251763	1.467963486542022	41.48879380978635	11.168339353511339
1734657964.208456	0.596	-0.06590039398052903	-0.763427416908817	-0.984058996330643	39.367599757142536	10.506682493053635
1734657964.258456	0.596	-0.07285057108617743	-0.7531411547924575	-3.436081479203395	37.24640570449865	9.84502563259591
1734657964.308456	0.6189962864551654	-0.07091274770304447	-0.7250182555943272	-2.722116400422576	36.145708534750455	9.33163676089253
1734657964.358456	0.7336378189673947	-0.108402061762519	-0.6052685835855763	-2.8002469022224603	30.815895293678018	11.492495931920773
1734657964.4084558	0.8011160612608638	-0.07626113783694337	-0.5198051828835502	-10.456477027176104	35.715451207394054	11.943015756849185
1734657964.458456	0.8126932161953282	-0.10230973643948853	-0.5003721013864133	-6.115043926751913	30.274188388195732	9.251327234586187
1734657964.508456	0.8242703711297932	-0.1283583350420346	-0.4809390198892758	-1.7736108263275678	24.83292556899722	6.559638712323092
1734657964.558456	0.8696868037304457	-0.1334746315921617	-0.4097094164193066	-4.289695109358105	27.743569557100685	5.213869952741748
1734657964.608456	0.9102068158663128	-0.1305507290178569	-0.34624167515685333	-6.91373790456098	32.58871482263516	4.685283490709489
1734657964.6584558	0.9107064165165168	-0.13671247037037348	-0.34440980610610517	-2.9852114584564706	32.0058473973971	3.9974999289285806
1734657964.708456	0.9112060171667208	-0.1428742117228899	-0.34257793705535705	0.9433149876478986	31.422979972159062	3.309716367147697
1734657964.758456	0.9117056178169248	-0.14903595307540649	-0.3407460680046089	4.871841433752408	30.840112546921006	2.621932805366789
1734657964.808456	0.9122052184671289	-0.1551976944279229	-0.33891419895386077	8.800367879856779	30.25724512168297	1.9341492435859053
1734657964.858456	0.9127048191173329	-0.1613594357804395	-0.3370823299031126	12.728894325961285	29.67437769644491	1.2463656818049973
1734657964.9084558	0.9322220993948629	-0.16158809858483886	-0.2937733656549303	21.82147995187475	17.859043264878114	-1.6459716848525252
1734657964.958456	0.9122368513841893	-0.1836551432632909	-0.3291639090071647	14.039724007718732	12.846076888867497	-1.5585362248058283
1734657965.008456	0.8922516033735173	-0.20572218794174138	-0.36455445235939654	6.257968063563268	7.833110512857237	-1.4711007647591379
1734657965.058456	0.9015126269788325	-0.18883591219036738	-0.34949028209972954	9.12752602491841	6.684319746981069	-1.8897963645006532
1734657965.108456	0.9111465396645323	-0.17145298277921336	-0.3337828157643494	12.132887917087809	5.58479710350446	-2.314945119978275
1734657965.1584558	0.9207804523502321	-0.15407005336805935	-0.3180753494289693	15.138249809257207	4.485274460027851	-2.740093875455898
1734657965.208456	0.9304143650359319	-0.13668712395690535	-0.30236788309358914	18.143611701426607	3.3857518165512417	-3.1652426309335198
1734657948.808456	0.967	-0.086	-0.169	1.68	-1.19	-0.14
1734657948.858456	0.966620820609065	-0.086530851147309	-0.16892416412181296	1.6534574426345456	-1.1581489311614548	-0.11876595410763649
1734657948.9084558	0.9662416412181334	-0.08706170229461328	-0.16884832824362664	1.6269148852693327	-1.1262978623231994	-0.09753190821546621
1734657948.958456	0.9658624636352594	-0.08759255091063652	-0.16877249272705186	1.600372454468172	-1.0944469453618064	-0.07629796357453757
1734657949.008456	0.965483284244328	-0.0881234020579408	-0.16869665684886553	1.5738298971029594	-1.062595876523551	-0.05506391768236729
1734657949.058456	0.9651041048533928	-0.0886542532052499	-0.1686208209706786	1.5472873397375049	-1.030744807685006	-0.0338298717900039
1734657949.108456	0.9647249254624578	-0.0891851043525589	-0.16854498509249158	1.5207447823720508	-0.9988937388464607	-0.01259582589764038
1734657949.1584558	0.9643457460715262	-0.08971595549986318	-0.16846914921430522	1.4942022250068376	-0.9670426700082052	0.008638219994529794
1734657949.208456	0.9639665684886526	-0.09024680411588643	-0.16839331369773047	1.4676597942056768	-0.9351917530468123	0.02987216463545843
1734657949.258456	0.9635873890977208	-0.09077765526319069	-0.16831747781954412	1.441117236840464	-0.9033406842085571	0.051106210527628704
1734657949.308456	0.9632082097067858	-0.0913085064104998	-0.1682416419413571	1.4145746794750098	-0.8714896153700118	0.0723402564199921
1734657949.358456	0.9628290303158508	-0.09183935755780881	-0.16816580606317016	1.3880321221095555	-0.8396385465314666	0.09357430231235563
1734657949.4084558	0.9624498509249192	-0.09237020870511307	-0.16808997018498384	1.3614895647443426	-0.8077874776932111	0.11480834820452591
1734657949.458456	0.9620706733420454	-0.09290105732113632	-0.16801413466840906	1.3349471339431818	-0.7759365607318183	0.13604229284545455
1734657949.508456	0.9653978333989364	-0.09028173324041162	-0.16867956667978726	0.9256578382649275	-0.7462151723407292	0.11621516290490766
1734657949.558456	0.9695740492187842	-0.0869407606249726	-0.1695148098437568	0.4286881429646771	-0.7169816554685103	0.0869816554685104
1734657949.608456	0.9681770984194115	-0.08569506867839022	-0.17347536564019403	0.3589475008687582	-0.7729829014321435	0.04567241338252754
1734657949.6584558	0.9622371522304489	-0.08222812719237375	-0.1794697920164029	0.1761668716829039	-1.132687433120074	-0.02474302738129968
1734657949.708456	0.9679449847319539	-0.06025479904486659	-0.1770839586061616	-2.5938450233069656	-2.176685383501256	-0.12986741347702646
1734657949.758456	0.9600635773300148	-0.09675816815572069	-0.18911348723313523	-3.145549586898961	-3.1349019140876697	1.3219725971025293
1734657949.808456	0.952182144008608	-0.1332616488022359	-0.2011430433552822	-3.6972499193974286	-4.093118281058693	2.7738155773616557
1734657949.858456	0.9242605214257853	-0.1453893012559873	-0.25535463816061915	-3.754655746212535	-10.73697465648354	1.6369388289516813
1734657949.9084558	0.8827685983266407	-0.14101075660733395	-0.33812998223278184	-3.4773479184644835	-21.23088666442296	-1.2529006391595918
1734657949.958456	0.8412768730752711	-0.13663223283708892	-0.4209049316036048	-3.200041413015631	-31.72474863377691	-4.142726327521318
1734657950.008456	0.7997849499761265	-0.13225368818843547	-0.5036802756757676	-2.9227335852675793	-42.218660641716326	-7.032565795632591
1734657950.058456	0.758293026876605	-0.1278751435397422	-0.5864556197486824	-2.6454257575170086	-52.712572649751095	-9.922405263770122
1734657950.108456	0.7178157264897665	-0.12699999334240628	-0.6345137593216902	12.241567498460029	-45.000507344553235	-12.142736360489112
1734657950.1584558	0.6745746246891655	-0.12001899468720978	-0.6679511601530833	12.72353408270367	-37.80645922371612	-11.623610225406559
1734657950.208456	0.6369147509960644	-0.11007202260105328	-0.6954346025536512	10.502985172698068	-34.96453931833134	-10.381095590348728
1734657950.258456	0.6059964868322467	-0.10190249078303651	-0.7190336640480978	17.774656983232116	-33.895763473400436	-10.558705508264453
1734657950.308456	0.5533413380304142	-0.0908828147416074	-0.7404687410335703	5.697287993751395	-33.29327772818567	-10.510748716804285
1734657950.358456	0.4171170180580657	-0.06664656040780491	-0.837413669904102	-3.1363982814757296	-42.243968332852816	-12.733793866200712
1734657950.4084558	0.38219774991540295	-0.033562033339660305	-0.8769899136269218	-4.119050395271025	-45.19230921571188	-11.169340028881749
1734657950.458456	0.3660680230351708	-0.019238409805472926	-0.8801454363492813	-3.5312060664316314	-44.411628687671495	-8.958257867999995
1734657950.508456	0.3466515815248292	-0.017999037118606096	-0.8689913340674551	-3.1263521254113336	-42.18493668976233	-6.905071493157475
1734657950.558456	0.3301037573250603	-0.0164443295415374	-0.8604660461909687	-3.0986280592899	-40.29965873836608	-5.133309203722854
1734657950.608456	0.3254815880580867	-0.013578584596013746	-0.8628695742097948	-4.6387348590455115	-39.833744076255144	-4.531502765162888
1734657950.6584558	0.3208594187911551	-0.010712839650516155	-0.8652731022285993	-6.178841658787115	-39.36782941414843	-3.929696326608396
1734657950.708456	0.31623727156431797	-0.007847108369877133	-0.8676766187865547	-7.718941114769244	-38.90191697368326	-3.3278927576742037
1734657950.758456	0.31161510229738637	-0.004981363424379542	-0.8700801468053591	-9.259047914510846	-38.43600231157655	-2.7260863191197107
1734657950.808456	0.3069929330304128	-0.0021156184788559	-0.8724836748241853	-10.799154714266445	-37.97008764946561	-2.124279880559751
1734657950.858456	0.30237076376343913	0.0007501264666676672	-0.8748872028430117	-12.339261514022072	-37.50417298735467	-1.5224734419997799
1734657950.9084558	0.2977485944965076	0.003615871412165245	-0.8772907308618161	-13.879368313763662	-37.038258325247966	-0.920667003445293
1734657950.958456	0.2931264472696705	0.006481602692804255	-0.8796942474197713	-15.419467769745776	-36.5723458847828	-0.31886343451110544
1734657951.008456	0.2885042780027389	0.009347347638301858	-0.8820977754385758	-16.959574569487394	-36.106431222676086	0.2829430040433921
1734657951.058456	0.2838821087357653	0.0122130925838254	-0.8845013034574021	-18.49968136924299	-35.640516560565146	0.8847494426033524
1734657951.108456	0.27528315058127406	0.0028839071927211257	-0.9056913678729389	-20.149197646517603	-36.41714521143497	-0.00723495582363977
1734657951.1584558	0.26215732265827396	-0.01919426283915847	-0.9484414024170946	-21.40528604220639	-38.85325514809343	-2.9181979396521456
1734657951.208456	0.25774873974055834	-0.009747299444053548	-0.9507506601358982	-20.22966393081555	-39.60271424410509	-3.9027814579419715
1734657951.258456	0.25334013580110126	-0.000300291002359886	-0.9530599288660898	-19.05403621362702	-40.35217691381278	-4.887369671087372
1734657951.308456	0.2489315318616042	0.0091467174394195	-0.9553691975963026	-17.878408496427788	-41.10163958352729	-5.871957884241727
1734657951.358456	0.24452292545020385	0.018593723889045004	-0.9576784662604833	-16.702781189798632	-41.8511022081211	-6.85654631659647
1734657951.4084558	0.23752233666339356	0.025951801967238584	-0.9599184950434065	-15.957668515331743	-42.55325227541341	-8.070983362014314
1734657951.458456	0.22705386280287002	0.030514982880800155	-0.9620658742968471	-15.788562399123288	-43.192097603312035	-9.592938407890422
1734657951.508456	0.21658533902482113	0.03507818555328303	-0.9642132637897802	-15.619455476554803	-43.83094597745963	-11.114900711006774
1734657951.558456	0.2061168152466769	0.0396413882258074	-0.9663606532827328	-15.450348553984782	-44.46979435161305	-12.636863014136969
1734657951.608456	0.13232689658320484	0.0971598254015188	-0.9531177756017887	-30.727208286149974	-46.205968807729235	-14.591800674599758
1734657951.6584558	0.012861535369569565	0.1381734795638525	-0.9216238484473817	-34.597922231719856	-43.230866598995576	-14.222727018556103
1734657951.708456	-0.11972408969683963	0.15204226879674054	-0.881959111241322	-25.957666539630633	-36.648739229066926	-12.10634978161739
1734657951.758456	-0.2523103469801704	0.16591112416110568	-0.8422941848992378	-17.317369647631153	-30.066580473139233	-9.989962453015272
1734657951.808456	-0.384896604264707	0.1797799795255969	-0.8026292585567927	-8.677072755553084	-23.48442171715168	-7.873575124393901
1734657951.858456	-0.39278114140743703	0.16623537760134013	-0.8163152072946062	-11.006620333839837	-21.89617370542447	-6.529607947647587
1734657951.9084558	-0.398655475346293	0.15224886822311173	-0.8308611770479637	-13.513002814418364	-20.388427994451455	-5.198092254840244
1734657951.958456	-0.40452978127430234	0.13826242553737533	-0.8454070774411296	-16.01937334370233	-18.880689472929067	-3.8665829111581376
1734657952.008456	-0.41790642700984343	0.13797069894114625	-0.8518365185170473	-15.69065171700682	-19.37690109412696	-4.211838880875389
1734657952.058456	-0.4421122448438084	0.1574466337823746	-0.8465501994019269	-11.26961413140096	-22.765714278133185	-6.977421997097196
1734657952.108456	-0.4663180730052733	0.17692258747550724	-0.8412638691137908	-6.84857264305985	-26.154530220738266	-9.743007421522032
1734657952.1584558	-0.4905238699953189	0.19639851705233236	-0.8359775437643191	-2.427537624357782	-29.543341667163155	-12.5085892073568
1734657952.208456	-0.4983868973434386	0.2032305802787247	-0.8332804958018706	-1.3984502073769285	-30.574864323132214	-13.366505549307833
1734657952.258456	-0.5025422227438199	0.20719412015564365	-0.8311708715300606	-1.1389011640013988	-31.071585703376634	-13.791627403790812
1734657952.308456	-0.5066975410723077	0.2111576545612781	-0.8290612483786746	-0.8793535884066277	-31.568306063566627	-14.216748432782248
1734657952.358456	-0.5108528594007955	0.2151211889669126	-0.8269516252272885	-0.6198060128118521	-32.065026423756635	-14.641869461773691
1734657952.4084558	-0.5150081777292455	0.219084723372511	-0.8248420020759215	-0.3602584372194415	-32.561746783942105	-15.06699049076126
1734657952.458456	-0.519163476243707	0.22304823887861275	-0.8227323889839642	-0.10071209923922836	-33.05846477559389	-15.4921094926254
1734657952.508456	-0.5233187945721568	0.22701177328421113	-0.8206227658325973	0.1588354763531819	-33.55518513577937	-15.91723052161297
1734657952.558456	-0.5274741129006446	0.2309753076898456	-0.8185131426812112	0.4183830519479528	-34.05190549596936	-16.342351550604405
1734657952.608456	-0.5316294312291324	0.23493884209548008	-0.8164035195298252	0.6779306275427284	-34.54862585615936	-16.76747257959585
1734657952.6584558	-0.5357847495575823	0.23890237650107848	-0.8142938963784583	0.937478203135139	-35.04534621634484	-17.192593608583415
1734657952.708456	-0.5399400480720438	0.24286589200718023	-0.8121842832865008	1.197024541115352	-35.542064207996624	-17.617712610447562
1734657952.758456	-0.5440953664004937	0.24682942641277864	-0.810074660135134	1.4565721167077625	-36.038784568182095	-18.042833639435127
1734657952.808456	-0.5482506847289815	0.250792960818413	-0.8079650369837479	1.7161196923025337	-36.53550492837209	-18.467954668426565
1734657952.858456	-0.5524060030574692	0.25475649522404753	-0.8058554138323618	1.9756672678973048	-37.03222528856208	-18.893075697418006
1734657952.9084558	-0.5565613236602737	0.25872002512602804	-0.80374578398218	2.235214773561477	-37.528945759549984	-19.31819630851001
1734657952.958456	-0.5619090388750138	0.26032234775671653	-0.798124062600672	2.45809857095853	-38.08375612212572	-19.524217677684007
1734657953.008456	-0.5729785208330402	0.2505946332073284	-0.7756496698238277	2.5050603914128975	-38.91732194757893	-18.67891295456785
1734657953.058456	-0.5840480137044913	0.2408668970475682	-0.7531752449030026	2.5520218763220845	-39.750888304717	-17.833606226202484
1734657953.108456	-0.5951175065759425	0.231139160887808	-0.7307008199821774	2.5989833612312716	-40.58445466185506	-16.98829949783712
1734657953.1584558	-0.6061869994472935	0.221411424728136	-0.7082263950615558	2.645944846140033	-41.41802101898558	-16.14299276947941
1734657953.208456	-0.6172564395354908	0.21168373495365964	-0.6857520773067309	2.692906107120264	-42.251583401384686	-15.29769007183525
1734657953.258456	-0.626874374216471	0.20120198315187282	-0.6694739760937641	2.2211093176332857	-42.450074148172845	-14.57054262302013
1734657953.308456	-0.6310356941393239	0.1878857787541634	-0.6764887415491461	-0.2007739890865281	-40.26122488271561	-14.287572798525972
1734657953.358456	-0.6351970088583412	0.17456957165330805	-0.6835035292183467	-2.622659155554591	-38.07237334051251	-14.004603397632799
1734657953.4084558	-0.6393583235773208	0.16125336455257336	-0.6905183168874838	-5.044544322000713	-35.883521798329255	-13.721633996742186
1734657953.458456	-0.643519618453719	0.1479372209480993	-0.6975330711076977	-7.466417940064427	-33.694680693343834	-13.438665945147113
1734657953.508456	-0.6476809331726984	0.13462101384736513	-0.7045478587768345	-9.888303106510465	-31.505829151160647	-13.155696544256509
1734657953.558456	-0.6518422478917157	0.1213048067465098	-0.711562646446035	-12.310188272978529	-29.31697760895755	-12.872727143363331
1734657953.608456	-0.6560035626107332	0.1079885996456539	-0.7185774341152358	-14.732073439446674	-27.128126066754376	-12.589757742470145
1734657953.6584558	-0.6601649112432739	0.0946725072002714	-0.7255920085432648	-17.15394108757954	-24.939260072718856	-12.30678208013617
1734657953.708456	-0.6821066792215599	0.14146878825605474	-0.6208070094672143	-10.391173380735427	-15.173486252974168	-8.741014422915288
1734657953.758456	-0.6893696434950174	0.16062234058236843	-0.5747325064396148	-5.37938242713571	-7.441010078028339	-5.219814353932718
1734657953.808456	-0.683190037072285	0.1497662813432033	-0.5895969378531523	-3.2165129752997443	-2.4722595378507624	-2.308712058646682
1734657953.858456	-0.6770104178297325	0.13891019348466507	-0.6044614273825354	-1.0536462404063642	2.4964883666340287	0.6023896548044079
1734657953.9084558	-0.6708307985872364	0.128054105626226	-0.6193259169117827	1.109220494467268	7.465236271073454	3.513491368228918
1734657953.958456	-0.6646512088112925	0.11719806953335152	-0.6341903355620263	3.272076916047639	12.433960482812147	6.424579200518174
1734657954.008456	-0.6584715895687964	0.10634198167491242	-0.6490548250912737	5.434943650921271	17.40270838725157	9.335680913942685
1734657954.058456	-0.5970159719699545	0.1255936112120182	-0.7120178937623775	6.09355590189484	21.420033631367403	8.779632515790336
1734657954.108456	-0.4984558187730548	0.15130586885930442	-0.793200028449958	8.096739148292022	25.119706785996797	7.434205223644657
1734657954.1584558	-0.39539553649645476	0.13842245940535788	-0.8445506179241963	14.28684133250639	27.61784624433117	7.164370242595591
1734657954.208456	-0.27786611090331786	0.06699104381978044	-0.8700090438667382	21.727194889961336	23.970398386955296	1.8216013648684592
1734657954.258456	-0.2287468444077902	0.06366080301069764	-0.8733391969893023	31.692546990487315	35.10126593674314	2.404359473127913
1734657954.308456	-0.1596993239607291	0.0224611197697639	-0.890081539264887	29.56585716677363	38.22463754569045	2.3792865314322387
1734657954.358456	-0.08571843651904493	-0.028113380258660357	-0.9101441531293851	24.445710277259412	39.365700163493074	2.203738791544066
1734657954.4084558	-0.03566583663282721	-0.05714403197740905	-0.9240543232542182	20.22164476837273	41.68174666732936	2.2198355231627267
1734657954.458456	-0.020181161195966114	-0.055051508269725116	-0.9290763801526597	17.292111577615223	45.69520713866714	2.5127888422384776
1734657954.508456	-0.003688509991300038	-0.05313115240512564	-0.9341639333652961	14.344263354956958	49.6793416038	2.785081362559646
1734657954.558456	0.0632025724241868	-0.0598202572424186	-0.9425253215530234	10.48130144250321	52.19612178746003	2.0241957386748743
1734657954.608456	0.1189820192004751	-0.08069335572124428	-0.9538466698180312	19.311896056508733	53.237358205131045	0.2357531234019536
1734657954.6584558	0.21216934004283952	-0.03254386899836771	-0.9213386800856792	1.5535041907998028	44.522343689249446	-0.9583722983476981
1734657954.708456	0.21598219818716075	-0.04228783981163306	-0.9289643963743217	-3.2210415077002	38.62088658365007	2.155461852847957
1734657954.758456	0.28541093002783363	-0.05415676604094507	-0.9405889926735627	-5.070444629971737	18.757846915643306	11.580246859785845
1734657954.808456	0.2929546883701349	-0.0549949653744594	-0.933045311629865	-7.104449308688227	17.623480193231565	10.993524237878397
1734657954.858456	0.30049838769415116	-0.055833154188238955	-0.9255016123058488	-9.13845416346004	16.489131331916518	10.406792068232681
1734657954.9084558	0.3080420868532101	-0.05667136777535502	-0.9179578940762783	-11.172447849289318	15.354780915732139	9.820056173596717
1734657954.958456	0.3154993010920907	-0.07049791957473933	-0.9005022394993142	-7.350710232038717	13.405232707362543	7.280356315419397
1734657955.008456	0.32152675395552177	-0.0820370122335085	-0.8844187285024059	-2.882680231421233	12.025958990935935	4.844044647888607
1734657955.058456	0.3254223395136915	-0.0770284206252537	-0.8803840055036767	-3.2722339513691523	12.347343009879552	4.522656990120449
1734657955.108456	0.3293179230387549	-0.0720198132358864	-0.8763492939955753	-3.6617923038754947	12.668728650697284	4.201271349302717
1734657955.1584558	0.3332135065637828	-0.06701120584656495	-0.8723145824875106	-4.051350656378282	12.990114291512084	3.8798857084879184
1734657955.208456	0.33710907151332714	-0.06200262234000787	-0.8682798902183397	-4.440907151332718	13.311498399849494	3.5585016001505076
1734657955.258456	0.341004655038355	-0.05699401495068631	-0.8642451787102752	-4.830465503835505	13.632884040664292	3.2371159593357093
1734657955.308456	0.3449002385634183	-0.0519854075613192	-0.8602104672021739	-5.220023856341833	13.954269681482014	2.915730318517988
1734657955.358456	0.35080987092435123	-0.048127721405652316	-0.856616835783043	-4.954827936545676	14.528877776111983	2.6003966773622462
1734657955.4084558	0.3645643105645478	-0.04875292320747942	-0.8547412303775617	-2.1393358223175527	16.089798274673687	2.308635836509591
1734657955.458456	0.37831868461884055	-0.049378122028129086	-0.8528656339156127	0.6761428666748039	17.650711330229033	2.0168763868730775
1734657955.508456	0.39207312425903723	-0.0500033238299562	-0.8509900285101313	3.4916349809029286	19.211631828790743	1.7251155460204222
1734657955.558456	0.4058275638993589	-0.050628525631789	-0.8491144231046328	6.307127095156658	20.772552327366643	1.4333547051651134
1734657955.608456	0.42531021660980883	-0.05100000297155079	-0.8397743884365849	7.428198478852962	24.027162464869242	1.667853063365005
1734657955.6584558	0.4503908548024874	-0.054115920629312704	-0.8220754607877774	6.1583006866555134	28.887738103859338	2.360188170096279
1734657955.708456	0.46568363198484913	-0.06816874290499644	-0.8133957764410316	5.203535408513473	30.681539535520145	1.9551362339148068
1734657955.758456	0.4809764820887854	-0.08222163218969467	-0.8047160507063651	4.248765577700155	32.47534952068455	1.5500823662970356
1734657955.808456	0.4880044665169894	-0.0767685966039661	-0.8005528260173954	4.651771163066215	33.079166805501565	1.8748960589400416
1734657955.858456	0.49299574927211315	-0.06650873760732294	-0.797502597667042	5.389371836878943	33.38973551026482	2.3795702041803293
1734657955.9084558	0.49798705807237215	-0.056248893517240155	-0.7944523528371432	6.126973806694019	33.70030275638036	2.884243789638495
1734657955.958456	0.5166334927432779	-0.05380436505310201	-0.7827620966054175	7.544052969482242	33.24611997948915	3.095430896777478
1734657956.008456	0.5912935514986428	-0.08341811260560694	-0.7356303278248791	11.748374296683352	29.65493028824964	2.102744957727542
1734657956.058456	0.6659537170917206	-0.1130319213045372	-0.6884984914448915	15.952700940137111	26.063734613632885	1.1100567224676263
1734657956.108456	0.7053497748075543	-0.11533085585091638	-0.6389729729190889	11.149518010411379	31.340718476546595	3.8052882921859053
1734657956.1584558	0.7358453569783624	-0.11073564338225972	-0.5888432902214755	4.072878915794092	38.855992735183776	7.43133572811419
1734657956.208456	0.7825113306180387	-0.11012212483301727	-0.5338474717482661	-3.1072370224604384	46.74822679385703	11.612511200621885
1734657956.258456	0.7890410309474981	-0.11303960957228631	-0.5256506207254811	-3.3600994962648194	47.263664357770594	11.593069269518091
1734657956.308456	0.7955706547229457	-0.1159571010464225	-0.5174538589648128	-3.612948757356624	47.779087851534655	11.573619326357182
1734657956.358456	0.8021002784983937	-0.11887459252055882	-0.5092570972041441	-3.865798018448437	48.29451134529873	11.554169383196273
1734657956.4084558	0.808629902273782	-0.12179208399466847	-0.5010603354435502	-4.1186472795379405	48.80993483905811	11.534719440035541
1734657956.458456	0.815159494913676	-0.12470956155717439	-0.49286361276793866	-4.371495334955114	49.32535587510081	11.515269589618837
1734657956.508456	0.8216891186890642	-0.12762705303128402	-0.4846668510073448	-4.624344596044618	49.84077936886018	11.495819646458107
1734657956.558456	0.82999883688536	-0.1303115674686088	-0.4727812449008019	-5.601518944142638	50.385405906115054	11.55360781445884
1734657956.608456	0.8460656247388366	-0.1319808441287103	-0.44482086084410244	-9.73506527371888	51.05728976180589	11.947974425407809
1734657956.6584558	0.8621324125921664	-0.13365012078879648	-0.4168604767876583	-13.868611603257381	51.729173617490595	12.342341036353178
1734657956.708456	0.8781991238335202	-0.13531938948919683	-0.388900226055952	-18.002138222623813	52.401054269401754	12.736705766822768
1734657956.758456	0.89426591168685	-0.13698866614928312	-0.36093984199950785	-22.135684552162306	53.07293812508645	13.131072377768138
1734657956.808456	0.9058167375812838	-0.1393212636954791	-0.3378065764274418	-23.94055603120576	52.5435543558292	13.167681496629765
1734657956.858456	0.910426009996318	-0.1426734618155039	-0.32209314773982534	-22.165986151417613	50.167683938261604	12.65437615950096
1734657956.9084558	0.9150352824113098	-0.146025659935498	-0.3063797190523529	-20.391416271645728	47.79181352071576	12.141070822376863
1734657956.958456	0.9196445328477043	-0.14937784207105761	-0.2906663652919175	-18.616854853633882	45.415954432137916	11.627767932869306
1734657957.008456	0.9242538052626965	-0.1527300401910519	-0.2749529366044439	-16.84228497386187	43.04008401459192	11.114462595745167
1734657957.058456	0.926509036485911	-0.1473825256831583	-0.2420210662467224	-5.4089686878436325	23.717969574884627	3.223368333027232
1734657957.108456	0.9338496702771029	-0.16600114456284373	-0.20058822698609186	2.141093182018401	3.7444129939234005	-4.05615776487556
1734657957.1584558	0.9650652319632463	-0.12060860822052152	-0.11473951901990427	-3.404140295130072	0.8475791146097829	-4.282160992588181
1734657957.208456	0.9654231075874005	-0.11846135447559687	-0.12428286899734713	-3.646302800807684	0.12109159757694798	-3.9648446058382074
1734657957.258456	0.9657809849180368	-0.11631409049177827	-0.13382626448098534	-3.888466461205005	-0.6053993836150139	-3.647526706007235
1734657957.308456	0.9661388622486766	-0.1141668265079403	-0.1433696599647098	-4.130630121604511	-1.3318903648135318	-3.3302088061734
1734657957.358456	0.9664967395793163	-0.11201956252410215	-0.1529130554484348	-4.372793782004033	-2.0583813460121014	-3.012890906339542
1734657957.4084558	0.9668546169099528	-0.10987229854028363	-0.16245645093207237	-4.614957442401336	-2.784872327204011	-2.6955730065085923
1734657957.458456	0.9672124925341069	-0.10772504479535898	-0.17199980090951514	-4.857119948078949	-3.511359844236846	-2.378256619758618
1734657957.508456	0.9675703698647432	-0.10557778081154036	-0.18154319639315342	-5.099283608476269	-4.237850825428808	-2.0609387199276465
1734657957.558456	0.9679282471953828	-0.1034305168277024	-0.1910865918768778	-5.341447268875776	-4.964341806627326	-1.743620820093811
1734657957.608456	0.9653418737746556	-0.10388604207511473	-0.18635468443663908	-3.3742542791138566	-3.342346060145998	-0.9047131842745603
1734657957.6584558	0.9620171566270396	-0.10499428112432005	-0.17804289156759898	-0.8530104421717041	-1.1314091569813407	0.06499598378011362
1734657957.708456	0.9586924553328192	-0.10610251488906015	-0.1697311383320485	1.6682213726119555	1.079517203675099	1.0347005279276746
1734657957.758456	0.9560432885405955	-0.10684128391022235	-0.1628701485006834	3.770598414834139	2.852828189891734	1.8311093174520499
1734657957.808456	0.9562709019972748	-0.1060066926766582	-0.1621872940081749	4.08926279618504	2.762542207747572	1.889531512633924
1734657957.858456	0.9564985181974673	-0.10517209994261993	-0.16150444540759812	4.4079254764541895	2.6722544483379798	1.9479530040166015
1734657957.9084558	0.9567261343976574	-0.10433750720858938	-0.16082159680702765	4.7265881567204175	2.581966688929215	2.0063744953987435
1734657957.958456	0.956953749512495	-0.10350291845418422	-0.16013875146251433	5.045249317493295	2.4916793600435665	2.0647957082071042
1734657958.008456	0.9571813657126855	-0.10266832572015354	-0.15945590286194378	5.363911997759546	2.4013916006347955	2.12321719958925
1734657958.058456	0.9574089819128776	-0.1018337329861153	-0.1587730542613671	5.682574678028672	2.3111038412252096	2.181638690971923
1734657958.108456	0.9576365981130697	-0.10099914025207712	-0.1580902056607903	6.001237358297822	2.2208160818156175	2.2400601823546005
1734657958.1584558	0.95786421431326	-0.10016454751804647	-0.15740735706021985	6.319900038564049	2.1305283224068527	2.298481673736742
1734657958.208456	0.9580918294280978	-0.09932995876364133	-0.15672451171570653	6.638561199336928	2.0402409935212047	2.3569028865451034
1734657958.258456	0.9583194456282879	-0.09849536602961065	-0.15604166311513606	6.957223879603177	1.9499532341124328	2.415324377927249
1734657958.308456	0.9585470618284802	-0.0976607732955725	-0.1553588145145593	7.275886559872304	1.8596654747028472	2.4737458693099224
1734657958.358456	0.958774678045706	-0.09682618061920978	-0.1546759659173416	7.594549235172807	1.7693777133578958	2.5321673629342136
1734657958.4084558	0.9590201586106835	-0.0960520764109327	-0.15399664023155268	7.908000937773872	1.677060202608636	2.5929397973913635
1734657958.458456	0.9610201354048181	-0.10121868312911407	-0.1536633107658636	7.7096699056888465	1.385396920130656	2.884603079869344
1734657958.508456	0.9630201217355765	-0.10638531448357298	-0.15332997971073717	7.5113379278886505	1.0937322468950736	3.176267753104926
1734657958.558456	0.965020108066353	-0.1115519458380785	-0.1529966486556078	7.313005950086664	0.8020675736568595	3.46793242634314
1734657958.608456	0.9670200943971294	-0.11671857719258429	-0.15266331760047844	7.114673972284664	0.5104029004186247	3.7595970995813754
1734657958.6584558	0.9690200806417901	-0.12188520847476939	-0.1523299865889334	6.916342009440199	0.21873822829868855	4.051261772817435
1734657958.708456	0.9709749174547286	-0.1270139228937069	-0.15201950633852876	6.725852087231103	-0.07234013437224956	4.342925305646167
1734657958.758456	0.9684747291089363	-0.12840292827281327	-0.15396409958193852	7.309229874581567	-0.3056919498326268	4.634614937290784
1734657958.808456	0.9659745322658416	-0.1297919265189769	-0.1559086971265677	7.892609137970317	-0.539043655188127	4.926304568985159
1734657958.858456	0.9634743302612381	-0.13118094425689775	-0.1578533171770426	8.475987924255952	-0.7724025304042714	5.217992774553148
1734657958.9084558	0.9555618867954273	-0.15300856455021447	-0.18339706137154224	8.559091573058188	-8.523919343901449	4.014276027180337
1734657958.958456	0.9409906774175923	-0.19249291190849643	-0.23903729537381155	10.370796227322964	-27.51755108593168	0.4626371957650819
1734657959.008456	0.759791353266343	-0.14290615312413812	-0.4943262151537049	12.475299214132392	-50.63989653768617	-9.48814383448601
1734657959.058456	0.4597270290221065	-0.0710978521070987	-0.8303917062902649	-4.172601410012343	-51.38634847248663	-16.177089809836616
1734657959.108456	0.41084042115073693	-0.061069829979638314	-0.8500299162898749	-6.980447605701259	-48.34451509382364	-14.55380372795396
1734657959.1584558	0.36195381327981213	-0.051041807852269125	-0.8696681262893062	-9.788293801364636	-45.30268171518831	-12.930517646086068
1734657959.208456	0.3130674385170685	-0.04101383354196272	-0.8893062426469895	-12.596126608250422	-42.260862841062035	-11.307239304605226
1734657959.258456	0.2532682104620329	-0.03283415302821189	-0.9134585703658629	-13.702235205540246	-36.79983851381406	-10.578882564411229
1734657959.308456	0.1500512887145928	-0.0320084103097167	-0.955571074204446	-8.037694724656856	-21.713656358524887	-13.411152637671572
1734657959.358456	0.10788406675301163	0.024219746753517065	-0.9560000019282185	-13.618754609882473	-23.380849389647775	-17.49285615783722
1734657959.4084558	0.09892166048944903	0.03783064121519608	-0.9580218865822828	-12.803470385818585	-24.739595366753292	-18.251129058565354
1734657959.458456	0.09759071511981152	0.041324372810494545	-0.9605174091503532	-10.462670216968618	-25.98569296907641	-18.2278375145967
1734657959.508456	0.09625976340373793	0.044818121065187795	-0.9630129436179914	-8.121858886324127	-27.23179651325034	-18.204545859565414
1734657959.558456	0.0949288116876523	0.0483118693199126	-0.965508478085652	-5.78104755565851	-28.47790005743552	-18.181254204533914
1734657959.608456	0.09359785997156651	0.05180561757463763	-0.9680040125533126	-3.4402362249927276	-29.724003601620787	-18.157962549502415
1734657959.6584558	0.09226673847953686	0.055299438045216524	-0.9704995579876823	-1.099452726404102	-30.9701237249323	-18.134663909916966
1734657959.708456	0.0019242979750346417	0.09665509127853264	-0.9787448062657262	-13.350665245746288	-40.90846408063227	-14.449454490114121
1734657959.758456	-0.03538892797660741	0.08979615294547648	-0.9617344593047817	-10.181822660810177	-41.753513957117285	-11.971970443906134
1734657959.808456	-0.0727020527828545	0.0829371226502105	-0.9447240641725222	-7.01295066439728	-42.598546489494055	-9.494488701256056
1734657959.858456	-0.10545864306257005	0.07745864306257004	-0.9311083874012112	-4.604427233124006	-43.36478043224489	-7.465042968194656
1734657959.9084558	-0.10887096606230218	0.08087096606230218	-0.9393548346505638	-7.09257942042871	-43.623548259724586	-8.320967320627476
1734657959.958456	-0.11228327279090315	0.08428327279090315	-0.9476012425780161	-9.580719743366943	-43.88231485331016	-9.176887591718227
1734657960.008456	-0.11569559579063536	0.08769559579063536	-0.9558476898273688	-12.06887193067165	-44.14108268078986	-10.032811944151048
1734657960.058456	-0.1139913606911447	0.0859913606911447	-0.9439568034557236	-8.87810655147588	-43.95919366450684	-12.957458603311734
1734657960.108456	-0.1812906483177535	0.09984384064648494	-0.9354783956475425	-5.122794756531399	-42.38756018250634	-15.562673607179551
1734657960.1584558	-0.3332131298986879	0.13483708969066602	-0.9441126907199802	-10.4300849396985	-40.78475727872444	-14.777528319303283
1734657960.208456	-0.35998215520871535	0.13400055764972765	-0.9190167294918291	-33.79442484310697	-46.40625259383023	-10.502849590108248
1734657960.258456	-0.44513319112857985	0.13234692832780115	-0.8222953071612558	-7.889836156796374	-43.57498207770598	-8.995704780526314
1734657960.308456	-0.4711898053545528	0.1397471131732256	-0.7803080831149682	-0.9780484970871296	-35.40332331658533	-6.185429558221346
1734657960.358456	-0.48155309250400974	0.14955022263892803	-0.7528593766110012	0.8845423013963455	-25.815882259128283	-3.0288283102651414
1734657960.4084558	-0.49191647962511226	0.15935328699952359	-0.7254107476240782	2.7471350917709816	-16.228420026410614	0.12777048937690164
1734657960.458456	-0.5546937001289874	0.1455083304659255	-0.7386032964607169	5.654050507495617	4.460955907006785	2.0007500205082134
1734657960.508456	-0.558551859814815	0.15389534742351088	-0.7419581389694043	4.3976769559580635	4.355318622463763	1.4488861395329813
1734657960.558456	-0.5624099071212383	0.1622824067853006	-0.7453129627141203	3.141295463561963	4.249641674505212	0.8970176335272175
1734657960.608456	-0.5662679544276619	0.17066946614709094	-0.7486677864588364	1.8849139711657732	4.143964726546654	0.34514912752141436
1734657960.6584558	-0.5701260017340503	0.17905652550880496	-0.752022610203522	0.6285324787810098	4.038287778589057	-0.2067193784793693
1734657960.708456	-0.5739840306439405	0.18744354487813175	-0.7553774179512527	-0.6278430227441401	3.9326113345355402	-0.7585852529810704
1734657960.758456	-0.5774799417238657	0.19364003529720106	-0.7598597828243561	-1.2362422060048015	3.4972407977004463	-1.4125738968742945
1734657960.808456	-0.5796788399232486	0.1919908700575634	-0.7683805047025888	0.4761465902299393	1.881052656412192	-2.432312014406593
1734657960.858456	-0.5818777368857034	0.1903416973357224	-0.776901230432101	2.1885375997415752	0.26486338900795237	-3.452050480744983
1734657960.9084558	-0.5840766371573647	0.18869252551239876	-0.7854219565513172	3.9009255995710705	-1.351325114543239	-4.471788661625167
1734657960.958456	-0.5880105113589313	0.18751443468861043	-0.7941469994775481	4.035376403218364	-2.567035400828625	-5.3418648186231845
1734657961.008456	-0.5932003902083834	0.1866773564180026	-0.8030200219691715	3.0275371272752265	-3.4928438016890357	-6.103605659617561
1734657961.058456	-0.5983902714534783	0.185840278797826	-0.8118930447430436	2.0196956725825923	-4.418651649604363	-6.8653462939782735
1734657961.108456	-0.6035801526985737	0.18500320117764937	-0.8207660675169163	1.0118542178898862	-5.344459497519756	-7.62708692833904
1734657961.1584558	-0.6087700339436218	0.18416612355748033	-0.8296390902907083	0.004012763206345785	-6.270267345426728	-8.388827562692878
1734657961.208456	-0.613959890441529	0.18332904992878565	-0.838512070754872	-1.003823885742069	-7.196070778763063	-9.150564564805052
1734657961.258456	-0.6063824072137473	0.17692573241444084	-0.7954306094452045	-11.321303857806933	-20.634861306313173	-13.985453079295949
1734657961.308456	-0.5984088646116855	0.1666762430882753	-0.7491255323099882	-20.653127816295346	-33.11794338532968	-18.72626581455425
1734657961.358456	-0.60186252452502	0.15607707990597294	-0.7469818813292979	-19.80281292728817	-32.45102974689268	-19.50155291923726
1734657961.4084558	-0.605316184438323	0.14547791672376711	-0.7448382303486271	-18.952498038288727	-31.784116108461753	-20.276840023913216
1734657961.458456	-0.6087698278833864	0.13487880408202124	-0.7426945895896223	-18.102187203883503	-31.11720565010471	-21.052123431753277
1734657961.508456	-0.6122234877966893	0.12427964089981539	-0.7405509386089514	-17.251872314884064	-30.450292011673778	-21.827410536429234
1734657961.558456	-0.6156771477100236	0.1136804777175138	-0.7384072876282612	-16.401557425876952	-29.783378373236825	-22.602697641112197
1734657961.608456	-0.619130807623358	0.10308131453521154	-0.7362636366475709	-15.551242536869777	-29.116464734799827	-23.377984745795203
1734657961.6584558	-0.6225844673674681	0.09248215218138339	-0.734119985545362	-14.700927414633771	-28.449551115934366	-24.153271869764048
1734657961.708456	-0.6259494049515468	0.08231734806907474	-0.7319126238487047	-13.72833344718913	-27.79289860129407	-24.93867030553476
1734657961.758456	-0.6213658139391679	0.11106898529067395	-0.7239954968040172	-1.7984775525797492	-28.055412474393115	-26.630435946088937
1734657961.808456	-0.6167822077661453	0.1398206967396336	-0.7160783588687964	10.131399241387122	-28.317928100666222	-28.32220331540453
1734657961.858456	-0.6368955918458489	0.13215960701636256	-0.6899162752632911	11.217482656328555	-25.592243719753167	-23.312606110597727
1734657961.9084558	-0.6727208317329426	0.10133323781118883	-0.6521470301110062	5.40490691340706	-20.96551118859826	-14.039700995636013
1734657961.958456	-0.7085459007929555	0.07050701559675908	-0.6143779650554886	-0.40764111315162666	-16.338800719297367	-4.766840097079175
1734657962.008456	-0.7440297709053153	0.04027252936294397	-0.5778430833542562	-6.12601713681069	-11.567167848043056	4.45738074823532
1734657962.058456	-0.7469065113617658	0.0665738181647162	-0.6592127499470908	-2.846577047586948	7.0451285106249575	9.03135306520768
1734657962.108456	-0.7497832108022903	0.09287515335675377	-0.7405824783391916	0.4328708986077136	25.657425957104557	13.60531831146837
1734657962.1584558	-0.7422587492326094	0.11128437563949219	-0.7688487494599844	2.953125099476565	31.569693577905547	15.415356239057578
1734657962.208456	-0.7271099678016759	0.12390836016527007	-0.7581884958604387	4.916856025708677	28.17243907552399	15.199345837172045
1734657962.258456	-0.7119611141357913	0.13653240488684046	-0.7475281914288903	6.880596315730744	24.77516837378582	14.983334405269618
1734657962.308456	-0.6966858597609802	0.1491198693017312	-0.7371302028622253	8.836637032395455	21.455444112494664	14.759583771021976
1734657962.358456	-0.6713376312568695	0.15879221965198392	-0.7476363765185343	10.179092555146052	24.31545805226768	13.919089878517255
1734657962.4084558	-0.6459894027529893	0.1684645700021487	-0.7581425501747479	11.521548077884443	27.175471992014675	13.078595986020176
1734657962.458456	-0.620641295118192	0.1781368742312162	-0.7686486737339073	12.863997199332601	30.03547229423032	12.238106101287418
1734657962.508456	-0.5952930666143118	0.187809224581381	-0.7791548473901209	14.206452722070987	32.89548623397732	11.397612208790342
1734657962.558456	-0.5699448381102029	0.1974815749316331	-0.7896610210464291	15.54890824482149	35.755500173750136	10.557118316285676
1734657962.608456	-0.5444827658969628	0.20658886520014974	-0.8003448227353582	16.867679077742782	38.52590247711284	9.684045739307068
1734657962.6584558	-0.5119808312158234	0.18075399404334677	-0.8220127791894511	16.721837063147927	35.75490419981058	6.796373850328922
1734657962.708456	-0.47947905151510123	0.15491924607610602	-0.8436806323232658	16.57599574397802	32.983919135582354	3.908715730764763
1734657962.758456	-0.41993680060904465	0.15369647241579623	-0.8714391445561801	11.363509077076152	27.157408654549997	8.529435475488711
1734657962.808456	-0.3485865157738355	0.166459419414807	-0.8814241934330634	11.170414902322182	26.644059409086932	13.543767090638978
1734657962.858456	-0.1377231321860392	0.10249990801673038	-0.9522766838474215	9.434374308148382	42.1124779161069	14.14271807152453
1734657962.9084558	0.019426118699443676	0.016857794523136002	-0.9381415752888	14.439864877017786	44.14960842268013	13.79349414140346
1734657962.958456	0.12140342286484875	-0.0015705978905769524	-0.9338165241922503	15.544235875976252	51.022533776514194	11.798665393639995
1734657963.008456	0.19276664894070855	0.013151951659994433	-0.9343445895482833	10.62039364777631	53.11296843547566	12.02178826082129
1734657963.058456	0.270469447811314	-0.0105770143263059	-0.9321124744173108	6.200219226260258	51.756184870944026	12.298264212053173
1734657963.108456	0.2917214262498836	-0.004743139086214076	-0.9425301093898306	4.47922539654793	49.772666456724565	12.61912725581763
1734657963.1584558	0.3083662141424484	-0.0014260186865884907	-0.9490986424273451	2.8359925814863356	47.7718061053784	12.70253992782391
1734657963.208456	0.30501144150181	-0.009240122260648388	-0.9390343245054298	1.6160457624054818	45.687190945425385	11.74639405102766
1734657963.258456	0.30665330326979917	-0.04371936866578338	-0.9439599098093975	12.534466744164746	42.41165997675058	9.792569108938942
1734657963.308456	0.332137820999848	-0.0328081558553731	-0.9274696774606322	11.668003902782331	40.51603067842833	9.843065123681413
1734657963.358456	0.3640046067660161	-0.009746675615496898	-0.9052467870064779	7.646918781087649	38.98977867781189	10.430084922925142
1734657963.4084558	0.3826668876750528	-0.006159925910888062	-0.8918334438375264	5.378248245104653	37.380464117610984	10.838294656865752
1734657963.458456	0.38184217878083	-0.031313547184686034	-0.891421089390415	5.6957611693804635	35.64857543974293	10.982618713354757
1734657963.508456	0.3810174659540923	-0.05646728840018418	-0.8910087329770462	6.013275607674457	33.91667850359388	11.126943458033844
1734657963.558456	0.4034067825489669	-0.0501686638570222	-0.8726920191368197	5.446167763989872	34.7407483540152	11.072616776398988
1734657963.608456	0.42629836825867207	-0.043189521872356036	-0.8539879186179143	4.859919837277911	35.62012024408313	11.013991983727792
1734657963.6584558	0.449189940266024	-0.03621038689967206	-0.8352838298916583	4.2736713958352155	36.499492184742294	10.955367422677805
1734657963.708456	0.4648975467322541	-0.03290754297852232	-0.822762473865981	3.417556326166141	37.405388443845126	11.018178848181126
1734657963.758456	0.46968077111109596	-0.03519515140095888	-0.8196429753623287	2.1510479971054646	38.351630806760284	11.265657287921922
1734657963.808456	0.4744639746532925	-0.0374827704863573	-0.8165234947913309	0.884538885280366	39.297873246629614	11.513136079887744
1734657963.858456	0.4792471781954894	-0.0397703895717558	-0.813404014220333	-0.38197022654482293	40.244115686499	11.760614871853587
1734657963.9084558	0.4840304107651717	-0.042058008904626625	-0.810284529332405	-1.6484760132428298	41.19035769946275	12.008093298613867
1734657963.958456	0.5040323763379916	-0.04447537475649887	-0.8049017342467047	-1.1716608709412202	41.91277863492858	12.064099201751402
1734657964.008456	0.5346883055615459	-0.04698358863685373	-0.7979344760087396	0.5255616442710429	42.47852054809035	11.986066131297882
1734657964.058456	0.5653442551059596	-0.0494918026904876	-0.7909672147486455	2.2227864872299508	43.04426216240999	11.90803280518483
1734657964.108456	0.596	-0.05200004639744422	-0.7839999313317825	3.919983630981644	43.60998583949999	11.829995582963301
1734657964.1584558	0.596	-0.058950230131241226	-0.7737136594057629	1.4679588096980627	41.48878976394515	11.168338091505827
1734657964.208456	0.596	-0.06590038072416883	-0.7634274365282301	-0.9840543194867708	39.367603802983666	10.506683755059125
1734657964.258456	0.596	-0.07285056445796582	-0.7531411646022106	-3.436079140770352	37.246407727428824	9.845026263601651
1734657964.308456	0.6189962864551654	-0.0709127477030444	-0.7250182555943272	-2.722116400422576	36.145708534750455	9.33163676089253
1734657964.358456	0.7336378833197236	-0.10840203111051566	-0.6052685020812472	-2.8002542037795632	30.815899966263178	11.492496361570375
1734657964.4084558	0.8011160833424505	-0.07626118752051345	-0.5198051458180296	-10.45646874658108	35.71544082904829	11.94301062288027
1734657964.458456	0.8126931941137419	-0.10230968675591928	-0.5003721384519332	-6.115052207346784	30.274198766541296	9.251332368555008
1734657964.508456	0.8242703600889476	-0.128358310200132	-0.48093903842212377	-1.7736149666446677	24.83293075819465	6.559641279319694
1734657964.558456	0.8696868037304457	-0.1334746315921617	-0.4097094164193066	-4.289695109358105	27.743569557100685	5.213869952741748
1734657964.608456	0.9102068163427696	-0.13055073489415706	-0.34624167340984513	-6.913734158022578	32.58871426676893	4.685282834787336
1734657964.6584558	0.9107064174694258	-0.1367124821229177	-0.34440980261210546	-2.9852039654153963	32.00584628566993	3.997498617090529
1734657964.708456	0.9112060162138118	-0.1428741999703458	-0.3425779405493566	0.9433074946069637	31.422981083886203	3.309717678985724
1734657964.758456	0.9117056173404681	-0.14903594719910646	-0.340746069751617	4.871837687214146	30.84011310278722	2.621933461288918
1734657964.808456	0.9122052184671288	-0.1551976944279229	-0.3389141989538607	8.800367879856779	30.25724512168297	1.9341492435859051
1734657964.858456	0.9127048377304797	-0.16135943599850955	-0.3370822886004257	12.728902997335064	29.67436642845301	1.2463629234544646
1734657964.9084558	0.9322220612761721	-0.16158814067422636	-0.2937734331567783	21.821465109409587	17.85903370343988	-1.6459715180832537
1734657964.958456	0.9122368895028784	-0.1836551011739049	-0.32916384150531924	14.039738850183342	12.846086450305371	-1.5585363915750936
1734657965.008456	0.8922516224329535	-0.20572216689694717	-0.36455441860831156	6.257975484831237	7.83311529359915	-1.4711008481441714
1734657965.058456	0.9015126269788324	-0.1888359121903673	-0.3494902820997295	9.12752602491841	6.684319746981069	-1.8897963645006528
1734657965.108456	0.9111465488521564	-0.17145296620154393	-0.3337828007845277	12.132890783227033	5.584796054916939	-2.3149455254321167
1734657965.1584558	0.9207804707253924	-0.15407002021287863	-0.3180753194694687	15.138255541508324	4.485272362862809	-2.740094686359714
1734657965.208456	0.9304143466607723	-0.13668715711208473	-0.3023679130530886	18.143605969175706	3.3857539137162056	-3.1652418200297343
