ts_receiver	acc_x	acc_y	acc_z	gyr_x	gyr_y	gyr_z
1734657947.9105902	0.954	0.104	0.331	-6.37	-2.1	-0.21
1734657947.9605901	0.9561723935666205	0.0791672686850622	0.33144484579004146	-7.587151986742742	-3.696603377483172	0.34396622516827935
1734657948.01059	0.9510568429659666	0.0770962879527421	0.36507656545935435	-6.188341201304931	-2.5120419847646698	0.7241994776935079
1734657948.0605903	0.9541179033366844	0.05804530293216559	0.3733378829120589	-4.139361130427525	-0.4869812800756579	1.4895251870601656
1734657948.1105902	0.9355448841559937	0.1062571542244758	0.34587142288776207	1.123430049181854	-2.853288953975603	3.1825715422447582
1734657948.1605902	0.9530558327730987	0.10887562373947211	0.3326395819327468	-3.883490727943111	1.12390829411691	1.5521697573522966
1734657948.2105901	0.9460502348809727	0.0931130284821887	0.3151255872024319	-5.170769340621256	0.633516441668093	1.1230768864595815
1734657948.26059	0.9462542681887176	0.08	0.34188140228307656	-3.133396319630716	-0.7569496933025597	4.024402453579523
1734657948.3105903	0.939712491174966	0.0780687367624491	0.3472875088250339	-6.095690897638062	-0.9896231467428753	2.5803768532571247
1734657948.3605902	0.9368252161395415	0.051	0.36402976201500137	-8.942045458754599	2.4999621177045013	2.7359848470818005
1734657948.4105902	0.9364018483926366	0.04571384562080082	0.3393987677382423	-4.353741225030882	2.267913741676961	3.224049290470308
1734657948.4605901	0.954101363061965	0.06247258361177689	0.3595506815309825	-7.793589219623415	-0.30358921962341573	2.3060684633960973
1734657948.51059	0.939011699577725	0.020032905062351808	0.3520058497888625	-8.189692886084716	-0.6996928860847165	2.2400511856525473
1734657948.5605903	0.9217765660408375	0.022460490565594658	0.3577411446530542	-7.615885534694581	-2.250109056324633	1.7232969812251224
1734657948.6105902	0.9509286194285034	0.03239581933335317	0.38025594838095805	-7.429386339983937	-0.48500335999524036	-1.632710713329962
1734657948.6605902	0.928824813988021	0.02758915284858635	0.363	-1.9229925595208355	-2.7712406994010443	2.9482481398802087
1734657948.7105901	0.9302917319349043	0.0286369513820745	0.363	-1.981669277396172	-2.844586596745215	2.962917319349043
1734657948.76059	0.9317586498817878	0.029684749915562653	0.363	-2.0403459952715086	-2.917932494089386	2.977586498817877
1734657948.8105903	0.9332255678286712	0.030732548449050805	0.363	-2.099022713146845	-2.9912783914335566	2.992255678286711
1734657948.8605902	0.9346924857755546	0.03178034698253896	0.363	-2.1576994310221815	-3.0646242887777273	3.0069248577555454
1734657948.9105902	0.9485134481620382	0.03430717407644553	0.3633295962966351	-2.816008741404749	-2.4109195178307954	1.97177166559951
1734657948.9605901	0.9656111331612627	0.037226291027532644	0.36374661300393324	-3.6333614877091405	-1.564375602015533	0.6581690376103104
1734657949.01059	0.9494310289936974	0.04473629669253555	0.3763113580577113	-4.362572945830372	4.179872852218849	0.6061106945804535
1734657949.0605903	0.906262089303218	0.0	0.42187081524119374	4.472258991845508	4.469655141921617	4.6476495693340905
1734657949.1105902	0.9290886646884287	-5.319881305717573e-05	0.4139468011869428	6.367517388723998	1.4687586943619992	7.287447833828005
1734657949.1605902	0.947723253053193	-0.009	0.39207703315824566	10.072410680890508	2.1796861431382433	10.719686143138244
1734657949.2105901	0.9409024701998601	-0.009	0.3878140438749126	12.041911729790385	2.418413543004895	10.958413543004896
1734657949.26059	0.9206470358055958	-0.003697705385043175	0.3811797321682211	13.656063120916409	0.36052001136303824	12.308449368430743
1734657949.3105903	0.9501083109120632	0.0032428955793202385	0.3538117958585927	-5.306375485321194	-10.827029596076583	10.670252017914313
1734657949.3605902	0.9425449833131007	0.01368782397224329	0.32623810622723826	-17.348138447176897	-17.322963945880755	9.78741274935193
1734657949.4105902	0.9291015396819674	0.022930191468647457	0.31111423214221323	-30.699158403346196	-15.970217430497964	2.4355295135758848
1734657949.4605901	0.962096992	-0.07552868676923077	0.3740355101538462	-21.222623606153846	-23.93569627076923	5.190518006153848
1734657949.51059	0.9676893973333334	-0.07940035200000001	0.3938240213333334	-19.777201919999996	-24.929423680000003	7.659780053333337
1734657949.5605903	0.9500992133668739	-0.11456717342105477	0.350949973498456	-0.5063492146288389	-20.224038801625426	11.345961198374573
1734657949.6105902	0.9906088906402152	-0.062825177012329	0.319825177012329	-5.67300708049316	-13.82048937926026	12.472132965554804
1734657949.6605902	0.9893109124593573	-0.06888240852299922	0.3258824085229992	-5.915296340919969	-13.457055488620046	12.744708383534965
1734657949.7105901	0.9880129342784993	-0.07493964003366949	0.3319396400336695	-6.15758560134678	-13.093621597979832	13.017283801515127
1734657949.76059	0.9544965580535802	-0.10722987099204391	0.2942298709920439	-3.3054413345736666	-10.689886288196158	7.377195451527846
1734657949.8105903	0.9584245200442028	-0.0985010665684383	0.28550106656843827	1.0022236484757032	-11.45365667526165	7.407746267010466
1734657949.8605902	0.9816227681909134	-0.098	0.2072397514185818	5.475127838785096	-13.045578846378245	9.870134982475719
1734657949.9105902	0.9751668251761894	-0.14322211654920702	0.2618331748238106	-0.8672259207777534	-6.873646247388658	4.641387039611123
1734657949.9605901	0.9678862758300067	-0.14335333445550577	0.266	-0.6174275156703334	-6.058980345949762	4.69
1734657950.01059	0.9510765161352377	-0.12906503871495212	0.266	0.20625070937334833	-6.647321935266678	4.69
1734657950.0605903	0.9661269447385137	-0.11604024052508993	0.25418059877196697	-2.8512887910226468	-5.467947186110529	4.928100664831671
1734657950.1105902	0.9529771161125792	-0.1475995437339037	0.21270022813304815	-3.1741877749255387	-9.042974670089354	4.892471365731305
1734657950.1605902	0.9448158375048515	-0.15798450882238788	0.21070739926156662	-3.904939860473911	-8.341806992227541	4.810602330742514
1734657950.2105901	0.9377197945921201	-0.1596541659783247	0.21529895644039293	-3.6419688584138594	-8.955405997034328	5.015135332344776
1734657950.26059	0.9655955024548253	-0.10159723227989251	0.19260069193002688	-5.199994971635966	-13.72698789122453	6.440484351018812
1734657950.3105903	0.9887132374015316	-0.11582353070863483	0.1890441173228413	-10.365919588573014	-13.789227946850277	3.9508821259889078
1734657950.3605902	0.9582049222645102	-0.1576229705677142	0.1707950777354898	-14.2335327856014	-21.11016235458286	3.023770294322858
1734657950.4105902	0.9594847061551699	-0.16359529539079298	0.16951529384483008	-16.712047587179086	-20.632376368736562	2.96404704609207
1734657950.4605901	0.9861086832889342	-0.22091086832889342	0.19027717082223355	-8.588625579933503	-16.705727438714128	2.924019575563488
1734657950.51059	0.9960196783101363	-0.2195491957753408	0.18956887408547712	-2.35215891669708	-17.098324494929454	5.436165578232375
1734657950.5605903	0.9935235046261763	-0.2133087615654409	0.18083226619161727	0.035847240957945115	-16.253785731856336	6.979632972814281
1734657950.6105902	0.9910273309422164	-0.20706832735554107	0.1720956582977575	2.423853398612949	-15.409246968783226	8.523100367396173
1734657950.6605902	0.9613821987909578	-0.2265340362712675	0.1407068072542535	4.437485505513266	-13.558742752756633	8.34392619151691
1734657950.7105901	0.9618145905668313	-0.21356228299505983	0.13811245659901197	8.190646120096018	-15.435323060048008	9.705960285518715
1734657950.76059	0.9680726112051559	-0.2372279406905835	0.12028492586322938	10.193171087679227	-12.758850988150352	10.445955848340846
1734657950.8105903	0.9879561520592898	-0.21146969507024038	0.06473484753512018	4.455445153202271	-13.99985546255671	8.778057814977316
1734657950.8605902	0.9748491097237383	-0.20860356110504655	0.046390705147861484	-10.539397441401215	-11.839477919922155	9.672449443347348
1734657950.9105902	0.9675609905677734	-0.23775603772890627	0.042532289124115344	-9.459040954752297	-11.899497724735983	7.091597836352709
1734657950.9605901	0.9602728714118084	-0.26690851435276625	0.03867387310036917	-8.37868446810337	-11.959517529549814	4.510746229358047
1734657951.01059	0.956964228713238	-0.27132140957107936	0.0420715425735238	-6.954965419364447	-12.825023940439998	3.8699946799022227
1734657951.0605903	0.9544976729962892	-0.27049922433209644	0.047004654007421515	-5.458588284415475	-13.860977341558518	3.639782812986996
1734657951.1105902	0.9507110919699916	-0.2614983416028261	0.04673013138570235	-2.970653459294234	-15.932012058905265	4.186672409002507
1734657951.1605902	0.9712292816070432	-0.25370718392956704	0.07728038794717527	-7.315290669129823	-12.782831756413778	1.475801150027877
1734657951.2105901	0.9729744214494346	-0.23625578550565435	0.06419183912924076	-0.6575821704071343	-9.91207671568014	0.9871619941583217
1734657951.26059	0.9663596359338638	-0.2463091808511934	-0.007674000787916481	0.7095069267603087	-7.163997230108153	-0.40505817179015385
1734657951.3105903	0.9593687563576702	-0.26283300574241203	-0.0014143002461032665	-4.339245676784278	-4.614378178835089	-0.025812945036912505
1734657951.3605902	0.95244794370229	-0.2795636243638677	0.011080976463104367	-5.348117000636129	-4.421336704834611	0.4232390585241747
1734657951.4105902	0.9661007725697105	-0.24628203392270037	-0.0069517067300323985	0.255457231463058	-11.565821046893928	2.4014552617234823
1734657951.4605901	0.9697341259380585	-0.2703180638979255	0.0031098872130850934	-1.2118585519082432	-10.000684211297873	2.0101710528244685
1734657951.51059	0.9733674793064064	-0.2943540938731504	0.013171481156202496	-2.679174335279531	-8.435547375701834	1.6188868439254585
1734657951.5605903	0.9770008326747545	-0.31839012384837556	0.02323307509931999	-4.146490118650832	-6.870410540105779	1.2276026350264448
1734657951.6105902	0.9636946344607604	-0.25416096617718764	-0.0038321932354375243	-3.6951784849561715	-11.363971788154986	3.505394395643447
1734657951.6605902	0.9632613851404395	-0.2671584457868163	-0.006431689157363259	-6.4549766554006585	-9.908254071876575	4.506200325584855
1734657951.7105901	0.9969923665766404	-0.2590595198250295	-0.06059862807151278	-15.07315522012161	-11.800595198250294	5.382975991251474
1734657951.76059	0.8851968049652242	-0.24858875579598153	-0.1325093701700154	-6.052993551970641	-16.233131182380216	2.6435225801777427
1734657951.8105903	0.9417515705499746	-0.28910560278207137	-0.09874533101494051	-10.130001279945933	-15.760434634209167	2.111738963485313
1734657951.8605902	0.9198751310170421	-0.3142618798062777	-0.10215469951569424	-7.002938066116876	-18.139979037273267	2.512497379659158
1734657951.9105902	0.9856518826528842	-0.40857557060598704	-0.06484464861771133	0.6649480991362866	-15.633206059870268	7.3613602188768255
1734657951.9605901	0.935	-0.3570481776157516	-0.11487955596062104	10.01125365585307	-14.79697946482089	8.987412025519125
1734657952.01059	0.9322861365786291	-0.35194690365095765	-0.1223746304936996	8.517492609873992	-13.00884976670111	9.856165013550907
1734657952.0605903	0.9379441206704849	-0.3052369043573119	-0.145222351731806	6.135675179893854	-9.985675179893853	7.14586732959908
1734657952.1105902	0.9555424759267418	-0.2621209339794825	-0.13818300962930327	7.182777317641139	-11.03277731764114	5.298040027692108
1734657952.1605902	0.9403035074941234	-0.25969649250587656	-0.12317449481176068	-2.49577887011677	-6.239030887765396	0.30422112988323047
1734657952.2105901	0.938483436154581	-0.261516563845419	-0.12443454420067467	-2.770189625924706	-6.023422436773446	0.029810374075294077
1734657952.26059	0.9366633648150385	-0.2633366351849614	-0.12569459358958868	-3.0446003817326472	-5.807813985781491	-0.2446003817326472
1734657952.3105903	0.9348432934754961	-0.2651567065245039	-0.12695464297850267	-3.319011137540584	-5.592205534789542	-0.5190111375405835
1734657952.3605902	0.9330232221359537	-0.26697677786404633	-0.12821469236741667	-3.5934218933485202	-5.376597083797591	-0.79342189334852
1734657952.4105902	0.9312031507964112	-0.26879684920358876	-0.12947474175633067	-3.8678326491564565	-5.160988632805642	-1.0678326491564563
1734657952.4605901	0.9293830794568688	-0.2706169205431312	-0.13073479114524467	-4.142243404964393	-4.945380181813691	-1.3422434049643925
1734657952.51059	0.9292948776221599	-0.3266960467657434	-0.0909604676574334	-5.518930944081354	-2.885742198438643	-3.540421481663049
1734657952.5605903	0.939750620925759	-0.32626039079476005	-0.08660390794760041	-4.299094225328112	-2.3063197570308533	-2.5950480246292864
1734657952.6105902	0.9465641222666473	-0.30004732818462426	-0.1349033588164046	-8.871222900902543	0.2202167927796536	-3.9883435135381493
1734657952.6605902	0.9393744741723138	-0.31673786807938026	-0.10722468450338833	-3.4064081271442253	-1.7982538277830982	-2.7921360423814083
1734657952.7105901	0.9421992979535319	-0.31476049143252766	-0.10891957877211914	-3.228444228927491	-1.1061720013846865	-2.73281474297583
1734657952.76059	0.9450241217347498	-0.3127831147856751	-0.11061447304084991	-3.0504803307107595	-0.41409017498628686	-2.673493443570253
1734657952.8105903	0.9478489455159678	-0.3108057381388225	-0.11230936730958069	-2.872516432494028	0.2779916514121126	-2.614172144164676
1734657952.8605902	0.9529784780642424	-0.28612913161454523	-0.12990853177303044	-1.9645196065090837	-0.24066871042879467	-2.7640584153106076
1734657952.9105902	0.9491987230713582	-0.283152234625123	-0.1445657222890502	-6.868639667224658	-0.37456703875369074	-5.820209498734007
1734657952.9605901	0.9876240472619956	-0.2837650295387472	-0.1010939881845011	2.2028958645753867	1.5555292478960052	-3.749475037490464
1734657953.01059	0.985385664501737	-0.28236604031358564	-0.10165358387456573	2.3987543560980056	2.0647613258548145	-3.9845052273176065
1734657953.0605903	0.9831472817414786	-0.2809670510884241	-0.10221317956463036	2.5946128476206245	2.573993403813624	-4.2195354171447494
1734657953.1105902	0.98090889898122	-0.27956806186326255	-0.10277277525469498	2.7904713391432434	3.083225481772433	-4.454565606971892
1734657953.1605902	0.9804382654791663	-0.23604497091964274	-0.11510111757341272	1.668190443888938	1.252139468472203	-4.528765309583328
1734657953.2105901	0.9857857054910135	-0.257467880448814	-0.10343569933472306	0.18425095422502824	2.6220007387548607	-4.455499569059665
1734657953.26059	0.970705369279655	-0.29284921713747114	-0.08071923928908054	1.6095145496701075	4.051872451272442	-3.6893758495758524
1734657953.3105903	0.9631991282526475	-0.28617700289124226	-0.08488937319297356	1.2008414270885917	5.628183066944004	-3.1639389776853317
1734657953.3605902	0.9730995124997832	-0.2307346333339115	-0.08206634166652213	0.5913189916899377	4.247176558352558	-3.601318991689938
1734657953.4105902	0.9341765638723529	-0.26083306902833353	-0.10700963290068638	-2.4177527162421524	5.020112187306854	-3.136291922839205
1734657953.4605901	0.9781176338847839	-0.2236766747858501	-0.08947053553913545	-5.418843817432849	-1.787031158046114	-4.13
1734657953.51059	0.9764034901588962	-0.25024590253710877	-0.08261396063558483	-8.05862515529984	1.812670666317961	-4.13
1734657953.5605903	0.9521791076886301	-0.29	-0.04917910768863013	-5.167454931958239	0.5119444567760166	-2.608806307306163
1734657953.6105902	0.9539694947666775	-0.29	-0.05096949476667748	-0.8436701384738683	2.8304957228473455	-2.796796950501136
1734657953.6605902	0.9664185834877496	-0.25330231418571136	-0.07069768581428865	0.47860658842907133	3.6969768581428863	1.0597685814288655
1734657953.7105901	0.9593589423888225	-0.2625642304447102	-0.0802821152223551	0.24680718030335602	5.684370163912142	-0.15168121308578436
1734657953.76059	0.9585203264646722	-0.2659186941413108	-0.08195934707065539	0.569674311101162	5.9778857373646925	-0.5332514585741004
1734657953.8105903	0.95607831384447	-0.2583915692223499	-0.07787550358525329	1.9134032625403605	5.464990173749977	-1.7340458880242255
1734657953.8605902	0.9580634237166148	-0.23831912756403234	-0.06668087243596764	4.8873037723155015	3.755441240436214	-3.3443908750958253
1734657953.9105902	0.9892353981193185	-0.2399597577957536	-0.0650402422042464	7.700984619717428	2.549578020121102	-1.1049306087963329
1734657953.9605901	0.9351165033164232	-0.2204732058213069	-0.01331165033164231	5.085683686773683	2.1736018017945016	-1.9546443243068041
1734657954.01059	0.9493133657461378	-0.2025851591598664	-0.014731336574613778	3.316754628031235	3.4655162828985366	-5.055239078956487
1734657954.0605903	0.9635102281758524	-0.18469711249842594	-0.016151022817585244	1.5478255692887881	4.757430764002571	-8.15583383360617
1734657954.1105902	0.9941051320560583	-0.23985151970261448	0.0025381166142535074	7.1200847017433295	11.11353762539722	-9.13550572948215
1734657954.1605902	0.9684434967571542	-0.21022273251537843	-0.012336395092270662	9.31027555830436	4.005545349692431	-0.0699540736159401
1734657954.2105901	0.9798364895359724	-0.2040880440960149	0.024471735423910658	5.997543811848041	4.128239118079702	-0.62207603135866
1734657954.26059	0.9950181928265242	-0.23320204160713018	0.030006064275508035	2.9713917560727197	8.977538906783613	-2.674142912499114
1734657954.3105903	0.9984005129429872	-0.25963543101275055	0.04436456898724944	3.772451769295072	11.310795820562834	-5.1548392309835736
1734657954.3605902	1.0014612769175655	-0.25407040560442623	0.0499295943955738	4.298346670381724	11.719825188074674	-6.907822234605746
1734657954.4105902	1.0045220408921438	-0.24850538019610185	0.05549461980389815	4.8242415714683755	12.128854555586514	-8.660805238227919
1734657954.4605901	0.9545882119961917	-0.17139214133079453	0.08627445932508215	17.066275053422192	11.179398717867386	-2.62978571035656
1734657954.51059	0.959912622024754	-0.17494174801650272	0.0978106810536339	16.942038819422404	14.1610683338623	-6.791699549349458
1734657954.5605903	0.9933760190519316	-0.19649592379227362	0.07	-3.909122009509167	9.122695336804934	-11.217357332729577
1734657954.6105902	1.0142858821764051	-0.18007117673539208	0.09235705891179737	0.7624441763452456	3.955041133219293	-8.799988247651632
1734657954.6605902	1.0159642247631622	-0.17755366285525642	0.09151788761841881	0.2043952662485119	4.366235066974781	-8.682504266578634
1734657954.7105901	0.9701896685859207	-0.20489282935773565	0.12499383182534801	-10.794572117691368	4.805173486873658	-7.92327680101445
1734657954.76059	0.9854958807207519	-0.17709615180995208	0.10471978312863987	4.43798102375599	7.92903848190048	-7.233557193438261
1734657954.8105903	0.994157470535007	-0.16607231022817293	0.12046812824546725	5.815961221478385	8.039276897718272	-4.5327160059023655
1734657954.8605902	0.9990507488873673	-0.16013910133515918	0.1309116475522082	7.594604048271147	7.029211280383427	-6.028025017117432
1734657954.9105902	1.0099332182591492	-0.15767557089878012	0.13829771640487956	8.165420074170784	4.750379184121364	-4.910284388091023
1734657954.9605901	0.9878219855016785	-0.13276344268319154	0.16976582872605198	5.315567956705445	9.116559012176593	-5.328530040588645
1734657955.01059	0.982	-0.13263482834022325	0.17797271000590564	6.377891745008281	9.473174141701115	-7.1815725344357215
1734657955.0605903	0.9846972875710496	-0.14788101299734685	0.17601618460591104	12.403993702254585	11.135297467506634	-8.439348117373976
1734657955.1105902	0.9830201663804358	-0.1361411646630506	0.17056554073641633	11.318057731332178	11.164647088342374	-7.881705321494902
1734657955.1605902	0.9813430451898221	-0.1244013163287543	0.16511489686692166	10.232121760409774	11.193996709178114	-7.32406252561583
1734657955.2105901	0.9796772034160383	-0.1266297880438662	0.17524377096367505	8.250680543330844	10.690723315174717	-7.487787282631972
1734657955.26059	0.9653452997798156	-0.13610793591874254	0.208798535478374	5.0420170242202715	7.4220170242202705	-8.25042746146775
1734657955.3105903	0.9664090715308787	-0.11001511921813135	0.26218185693824236	1.335291726345976	7.165459971353932	-5.222423338107679
1734657955.3605902	0.977199505939623	-0.12013113670214697	0.24523492570930353	5.281367384749521	6.110665601046262	-5.692187815599233
1734657955.4105902	1.0017480937907428	-0.11505211852605321	0.22322584694623057	5.8739195052937925	10.73257214129158	-6.640271208470068
1734657955.4605901	1.001173275659485	-0.11748017302154408	0.2403612111508086	7.268896892064688	11.474448446032342	-6.534258592327943
1734657955.51059	0.973751438891222	-0.09218929861402754	0.2802026753464931	8.063653792524095	8.648946929861447	-2.934512364552711
1734657955.5605903	0.9670045263892342	-0.08201357916770252	0.27503168472463924	7.0997720204345285	12.032395666086586	-4.9959698534778205
1734657955.6105902	0.9747262487027444	-0.041273751297255634	0.2864637616753007	4.954333776876329	4.575812954039472	-7.6683251816157885
1734657955.6605902	0.9565320963538944	-0.05707300158526333	0.29035619904884197	-2.9246696670947014	15.097466966709469	-7.520044044387373
1734657955.7105901	0.9363567988555986	-0.06584487006278325	0.28509307796233	-1.082577286815519	14.913257728681552	-7.76565636175793
1734657955.76059	0.9371987843324769	-0.04579817649871536	0.29780020261125384	0.350070913938847	4.423489419640301	-10.710070913938846
1734657955.8105903	0.95727900950023	-0.04466772242876867	0.2914451482858458	2.1874445724896447	5.11603656753797	-10.743024762494247
1734657955.8605902	0.9632568914335045	-0.04979162122871816	0.2948610808191454	1.9184398854922966	6.102387086528245	-10.593577714162388
1734657955.9105902	0.930741926640715	-0.06069587148418224	0.3091167278907835	0.21214924063819285	4.308928121059267	-6.496881956247601
1734657955.9605901	0.9336434999160445	-0.06770291659670366	0.3098116663868146	-3.396020808846278	5.46486501763068	-7.736726658830809
1734657956.01059	0.931097943998592	-0.06558161999882667	0.30132647999530665	-2.653566999589331	5.999431760295682	-7.499141439868586
1734657956.0605903	0.9285523880811396	-0.06346032340094959	0.29284129360379835	-1.9111131903323577	6.533998502960703	-7.261556220906354
1734657956.1105902	0.9441229427434031	-0.030736144308746632	0.34206147137170156	-10.997242227109876	-2.1329543526074866	-5.925651639430731
1734657956.1605902	0.9356786991654524	-0.001464498609087296	0.3598928997218174	-13.153113823022917	-9.093724665518613	-2.593748509736389
1734657956.2105901	0.9509390314316063	0.002052855922847414	0.39324797183861343	-7.840854714740947	-7.42654511445769	-3.8067483430190032
1734657956.26059	0.9203236136283568	-0.02945925542345636	0.3688976829076772	7.89933870974584	-8.252546212388108	1.610291591149297
1734657956.3105903	0.9390197188280328	-0.0009912360764298602	0.35196421397875527	13.442607267262115	-7.628926419362657	1.0436096390634397
1734657956.3605902	0.9611812298925257	0.008858324396678122	0.311745175380231	16.372851508011742	-6.42235526140693	-6.138361539244465
1734657956.4105902	0.9637573951490865	0.041473399443725856	0.42845562910548074	1.4550883021802903	-2.3493498862935063	-4.71650883021803
1734657956.4605901	0.921	-0.06887401017617593	0.27330204903066585	18.394170998709836	-9.568155596491142	-2.6329878356554657
1734657956.51059	0.9346841738138405	-0.028948683765559757	0.2437270535987125	23.81276562022531	-13.580253093487045	1.288532825391663
1734657956.5605903	0.9720659471628151	-0.021379924518307312	0.34166279547109846	7.101472422697479	-9.90852757730252	-4.7684196517247885
1734657956.6105902	0.9416910547573323	0.022012778918096675	0.3390592332649142	7.344471561941341	-9.665528438058658	0.030813348341490965
1734657956.6605902	0.9938038482627984	0.09019134140870345	0.31498075868600767	-4.602902148447235	-1.8712935546582923	-10.283602263097553
1734657956.7105901	0.9345053233834911	0.058199836530524074	0.36206306325451393	5.838665173645552	-0.30350547214081836	-5.468886069948526
1734657956.76059	0.9941771600738654	0.08424844008164072	0.325319720089416	4.9243656332005585	11.143274759451774	-13.683087569248663
1734657956.8105903	0.9445844684569374	0.061630108056218824	0.28838351342703133	3.995770300539019	14.029087208014374	-9.851165628769
1734657956.8605902	0.9546815591251472	0.053400708693248755	0.3014418426024468	-0.8733122705410039	5.236099217054827	-4.692631331006795
1734657956.9105902	0.9451654868862873	0.04907522131194878	0.29019557541106683	-2.6294601473487944	4.63053098367283	-5.72209732775619
1734657956.9605901	0.94417192800569	0.019189408204843394	0.30324915190895846	-0.9790138515508915	1.9536081783221033	-3.8271536931441177
1734657957.01059	0.9597940101366919	0.05188722503796996	0.30288722503796994	-1.7946270755473437	-1.4027384085052717	0.3064211505315795
1734657957.0605903	0.9549688635201078	0.057875454080431404	0.3049377270402157	-2.3553528795641396	-1.8069226784452974	0.9691022320377476
1734657957.1105902	0.9566661974691731	0.06783591391954764	0.3108359139195476	-1.7851477972104561	-2.718415442894698	1.5748522027895437
1734657957.1605902	0.9558390931302466	0.0723849877836433	0.3153849877836433	-2.045685663972298	-2.863158702206832	1.314314336027702
1734657957.2105901	0.9550119887913201	0.0769340616477391	0.31993406164773913	-2.3062235307341488	-3.007901961518971	1.0537764692658516
1734657957.26059	0.946040463485417	0.08647515170083638	0.32718149717874756	1.762058484608621	-4.56205848460862	2.0109016008374434
1734657957.3105903	0.9512381662448821	0.057975959704133176	0.34088128966319	-1.668324635001943	5.213395464271836	2.6166641814291265
1734657957.3605902	0.9529460594868955	0.05242530666758952	0.34899378256275376	-1.4591077128552974	6.707802051033591	2.5568879179586563
1734657957.4105902	0.9420841353616889	0.06415864638311083	0.34669171064886684	-5.358618441477802	2.907271033840422	3.273635516920211
1734657957.4605901	0.9885709044802762	0.03471271344082867	0.3544327641577902	-8.817839349021144	3.78	5.25
1734657957.51059	0.9850721815800668	0.0242165447402004	0.3824225473594656	-11.083262426906748	3.78	5.25
1734657957.5605903	0.9750606975010266	0.00651463277735409	0.40383264666705776	-2.700561519322391	1.015295847330588	7.223034875051331
1734657957.6105902	0.9455402559109426	0.028530979730529475	0.40866327449326323	-1.1214247128294406	6.673633809257379	4.937817913765978
1734657957.6605902	0.93283734195033	0.03931023227538485	0.42174398707450517	-0.07105586767687888	5.092079095215364	1.891055867676879
1734657957.7105901	0.9366398521991339	0.023164581826849752	0.41572029560173224	-0.3777672136358591	4.648025865151571	2.4888999642417744
1734657957.76059	0.9193516964270397	-0.011648303572960263	0.4203892219420577	-1.79677857253139	1.4194491071888078	5.277077677146954
1734657957.8105903	0.9130565352750476	-0.017943464724952445	0.43387885298204093	-6.329294601965761	1.6083039417485734	-0.5774221942057745
1734657957.8605902	0.9698909660007222	-0.021623730261057968	0.398811865130529	1.267613458756098	-1.4145537060913527	7.044353250888249
1734657957.9105902	0.9518200569109797	0.013284352848074627	0.4505439544712162	-1.85105689414221	-1.0376927480594702	0.6112503577983196
1734657957.9605901	0.8805367139244451	-0.014907342784889012	0.39055594329066595	-7.567373410224597	-1.7759440202310766	6.398177481033366
1734657958.01059	0.8891322684963175	-0.016626453699263515	0.3802412778044189	-9.703368721334918	-1.2945929642062155	6.849444096056673
1734657958.0605903	0.9497132595231429	-0.05648530380925717	0.3488474309125762	-14.507888658261006	-2.4228450528936554	0.8547947695276585
1734657958.1105902	0.8971624979640237	-0.03546499918560949	0.3392131246267377	-8.806131029096573	-11.557919103920542	7.414881504157706
1734657958.1605902	0.9242611734645828	-0.07414509636921263	0.3142432959212504	-19.39	-11.987030714487524	6.682655793822708
1734657958.2105901	0.9664523762093892	-0.03591838767404627	0.3019149788602293	-12.848333665342755	-19.039522766065623	6.528808907220597
1734657958.26059	0.9738448048924749	-0.07909593426367605	0.31057533881136035	-17.902737167952232	-19.285158111968155	7.631916017566562
1734657958.3105903	0.9811623494655641	-0.10594588351147863	0.33041882526721794	-12.975956941509512	-22.031059229017522	4.352484738321401
1734657958.3605902	0.9527343188291914	-0.12778905313819858	0.32705473430900717	-4.288737513505577	-22.469860168451024	7.729672392201176
1734657958.4105902	0.942434976917788	-0.12607249615296467	0.33563751923517665	-5.580446644894083	-21.899104970860755	8.540745567724192
1734657958.4605901	0.9321356350063843	-0.12435593916773072	0.3442203041613464	-6.872155776282636	-21.328349773270464	9.351818743247236
1734657958.51059	0.961052111796228	-0.12340760663094155	0.28669197309207317	2.3853040570116315	-17.13175057899646	7.7195702890945865
1734657958.5605903	0.9541389294156417	-0.08175614404107603	0.28162518237038775	-10.76541241135762	-14.548350354569523	6.913487825022062
1734657958.6105902	0.9593942090614096	-0.13990868640788548	0.2514688205504185	-0.9445519802315605	-13.371461434021745	6.080996646436673
1734657958.6605902	0.9639499545164487	-0.13307506822532686	0.23666264782154156	2.1448129064668118	-15.663570866088278	6.280310510094632
1734657958.7105901	0.9685056999714879	-0.12624145004276802	0.22185647509266404	5.234177793165293	-17.955680298154896	6.479624373752599
1734657958.76059	0.9730614454265272	-0.11940783186020916	0.20705030236378652	8.323542679863774	-20.24778973022151	6.6789382374105655
1734657958.8105903	0.9903932918785026	-0.07406597776561308	0.204	9.327209738078457	-18.424939137009638	9.978986425446312
1734657958.8605902	0.9632277509013784	-0.12813875450689186	0.21844498197243253	-6.738689242842167	-14.492010291622986	4.19578054400893
1734657958.9105902	0.9636527823660194	-0.13026391183009703	0.20994435267961192	-6.3816628125437	-13.45068320325246	3.2734622657378942
1734657958.9605901	0.9725710857171312	-0.18896375714724406	0.22175029999751014	3.4198800009959465	-8.052481000157691	3.205001999983401
1734657959.01059	0.9934554136480201	-0.22116042937403102	0.20347651305798242	10.72939477680704	-9.209820839661115	3.083176753719883
1734657959.0605903	0.9445609682898273	-0.18317882030902155	0.17498366175815822	16.465376613953822	-8.623661098560435	8.300411457216839
1734657959.1105902	0.9702251773122972	-0.1416106383242699	0.15496950352556788	5.833258857343628	-8.535457447116482	6.248170211534072
1734657959.1605902	0.9726279532340059	-0.13753488187063978	0.12897669237791345	6.383024421496947	-12.007447300319088	5.394883461889568
1734657959.2105901	0.9947967084054712	-0.1368672152657548	0.11110928244748403	-0.29480644065954786	-13.26010598330731	2.6288248856619405
1734657959.26059	0.9582526129805182	-0.17871996749661606	0.12540274195228657	-13.937173880612493	-13.96796933013874	4.021755132826546
1734657959.3105903	0.938152812584644	-0.2425149861443905	0.12103322012709654	-11.429068352953415	-20.391166413168087	11.423725104698459
1734657959.3605902	0.948888338615787	-0.2329017665702778	0.11662049423560188	-8.110947103910643	-17.506876340080556	7.327194423749533
1734657959.4105902	0.9904982210422895	-0.24100711583084225	0.12342603006041349	2.0699288416915778	-22.085373581119217	9.600355791542112
1734657959.4605901	0.9964598618439752	-0.23227751319155268	0.10318234865242247	3.773897112069543	-14.655045265252166	7.516570987234781
1734657959.51059	0.9712705123105524	-0.2135520874767614	0.08262083499070455	7.7473396543466775	-12.422128276522658	7.225054656741313
1734657959.5605903	0.9943985241380452	-0.16496974068890144	0.06831586758652668	5.3168487448547666	-13.067889268943132	1.3357859586063
1734657959.6105902	0.9900563428107633	-0.19362813744896246	0.056157759870137144	4.283409588961656	-13.9189568090904	1.8829008058438288
1734657959.6605902	0.9548072992460679	-0.25728175024048544	0.051505109801116514	-4.1548319890815515	-11.963766535941264	5.252554736123787
1734657959.7105901	0.9934129865898037	-0.26221607171950995	0.04844129865898037	5.850100016292556	-19.58522503665825	5.97235228568726
1734657959.76059	1.0271591643719624	-0.23901557449427582	0.05181591643719624	4.550872171679446	-16.661962386278752	4.9388755911086495
1734657959.8105903	0.9816172737018495	-0.23642393322161978	0.05710697197098219	4.401069719709822	-9.319207106651808	3.3378127124553694
1734657959.8605902	0.9803076314283038	-0.2447183342874095	0.05405113999937545	4.370511399993754	-7.913524399712706	2.5432963998376166
1734657959.9105902	0.9782964705882353	-0.2550564705882353	0.051162352941176464	4.578658823529412	-6.669105882352941	2.1023058823529412
1734657959.9605901	0.9643930838389801	-0.23620748483059334	0.005647844457564888	-6.993825714082448	-7.560444324401236	8.90496826254277
1734657960.01059	0.9659805136815467	-0.24403897263690658	-0.001679657545635524	-9.676967802638593	-10.209686956803992	9.283483901319297
1734657960.0605903	0.9619305497350696	-0.28725868128311627	-0.006196878928827962	-10.442978494400549	-11.116486151854511	5.33810768981814
1734657960.1105902	0.948007051796454	-0.3115668952737082	0.005433104726291849	-6.942080279953926	-9.678483863762393	5.00031733084043
1734657960.1605902	0.9495209716830758	-0.3025629150492276	-0.04707781371307928	-1.8791060801689004	-10.513404844116026	4.062510924284927
1734657960.2105901	0.9459917324909932	-0.2919862208183221	-0.05500826750900673	-0.7706558890478672	-12.669228365826038	5.108919712156454
1734657960.26059	0.9418358784525568	-0.285059797420928	-0.059164121547443174	-1.1003536427638252	-12.28134865557197	4.565888117800759
1734657960.3105903	0.9376800244141206	-0.2781333740235342	-0.06331997558587948	-1.4300513964797714	-11.893468945317915	4.022856523445082
1734657960.3605902	0.9335241703756841	-0.27120695062614014	-0.06747582962431592	-1.7597491501957294	-11.505589235063848	3.4798249290893866
1734657960.4105902	0.9308783296881125	-0.32178199471548313	-0.06745754055044943	0.261634281090785	-12.862167031188763	4.2697336249510105
1734657960.4605901	0.9260913898574284	-0.3257180264132062	-0.11218668172211116	5.305196386693324	-18.499465010567775	5.171866817221111
1734657960.51059	0.9417046866275395	-0.3534749984489591	-0.10611484408929019	6.762437418570354	-19.167367150178077	5.111148440892903
1734657960.5605903	0.9473191923013861	-0.36606414418504946	-0.08285100962326734	11.587227212531685	-19.31109114987326	5.379570673628714
1734657960.6105902	0.9070425172527117	-0.41302435589878356	-0.13228565395990885	17.10511051593816	-18.172130085441964	9.193188793953373
1734657960.6605902	0.9154410273301371	-0.3979139188106653	-0.15073113504853225	18.300686038898988	-21.01167961808563	14.121551201818486
1734657960.7105901	0.9478637802174298	-0.36867282786194006	-0.13982558974633186	20.599070769559823	-23.140814872096506	12.865696922830132
1734657960.76059	0.9514162095163042	-0.3260818312678569	-0.1339992163136645	19.76313218717388	-22.534107237119557	13.288324190326087
1734657960.8105903	0.9485095481824535	-0.31653137259949027	-0.12901636831277755	18.484201200279568	-22.15624126371896	13.230190963649072
1734657960.8605902	0.9456028868486027	-0.3069809139311233	-0.12403352031189042	17.20527021338521	-21.778375290318355	13.172057736972056
1734657960.9105902	0.9324782557760056	-0.2689030233550622	-0.08030936043446608	5.7795662870388185	-12.798295356601926	7.929783143519409
1734657960.9605901	0.8627129745226815	-0.37647968280433475	-0.19942594904536293	-6.5771555926068626	-5.282660840568543	-6.222477273743947
1734657961.01059	0.9587463318515582	-0.3452327031117276	-0.15254926637031166	-5.324402657709962	-3.899308124469105	-10.55224322960908
1734657961.0605903	0.9214211133870149	-0.4155222204715269	-0.15634814698101798	-13.376248666937508	1.9931593123636822	-9.849311086601379
1734657961.1105902	0.8875082836458318	-0.4416090125801294	-0.17373934172008626	-5.645862605421646	1.201859951736074	-10.214526176121813
1734657961.1605902	0.9025584463128106	-0.39120776843594723	-0.17869695860344204	-4.0666691072427525	3.4363613067228274	-7.640003660864128
1734657961.2105901	0.910742034957134	-0.33747214062603914	-0.15330652621785046	-9.753854057287226	6.929498969894391	-8.893232272213707
1734657961.26059	0.9644599135877797	-0.3061900667730793	-0.10614000785565639	2.634814297294631	1.930242438930724	-11.093946013254381
1734657961.3105903	0.9318113065493048	-0.32228113065493047	-0.1490320854154867	-6.643440284718289	6.347985764085546	-8.001836013943953
1734657961.3605902	0.9403153541609504	-0.3231315354160951	-0.14307925208733474	-6.623597506957783	7.340124652110875	-8.279634902591045
1734657961.4105902	0.9488194017725957	-0.32398194017725956	-0.137126418759183	-6.603754729197277	8.332263540136168	-8.557433791238127
1734657961.4605901	0.9573234493842414	-0.32483234493842417	-0.13117358543103103	-6.58391195143677	9.324402428161497	-8.83523267988522
1734657961.51059	0.9347337535360317	-0.30379165014772647	-0.14075305240659663	-6.429688879576128	8.800011826582672	-9.665762110512745
1734657961.5605903	0.9563766176670943	-0.2523993749148491	-0.14588554231322168	-11.11948906100986	6.660682717432644	-11.20392012981599
1734657961.6105902	0.9495534630815435	-0.2813977819034398	-0.13437146895010477	-11.626961183310197	7.735329564656887	-10.815853212762791
1734657961.6605902	0.9451564278099592	-0.36647065774432613	-0.09957821390497965	-5.371521122057104	9.992304224411422	-7.9142041178057205
1734657961.7105901	0.9559308064785441	-0.3242710079590354	-0.10496540323927207	-1.2862358768853426	9.175247175377068	-8.605560082373248
1734657961.76059	0.9700122052900969	-0.3010894260523348	-0.09832519647326875	-0.7139408185450273	10.192397594425906	-2.805693022752065
1734657961.8105903	0.9417644668251817	-0.3010454594529998	-0.07851652580263647	2.700207517235424	7.6378093864482	-2.3776863876308942
1734657961.8605902	0.9829994177777965	-0.26146149367521515	-0.04946149367521512	7.000163022216964	7.624405336758912	-2.8323453128192995
1734657961.9105902	0.9539919696294084	-0.2870262163168294	-0.05493953699574959	0.7169296411901147	9.585767589702472	0.3579026946536468
1734657961.9605901	0.938549466346488	-0.28402350734515047	-0.0455024516561871	3.3593135362676123	8.925171615933097	0.5981194123879648
1734657962.01059	0.9231069630635675	-0.2810207983734715	-0.0360653663166246	6.001697431345111	8.264575642163722	0.8383361301222828
1734657962.0605903	0.9732214050786689	-0.2160073542919788	-0.02863745888767079	-3.384863077424529	10.430514800438516	-3.2932310883285627
1734657962.1105902	0.9593159216721744	-0.25989469277594185	-0.02505251406917831	-5.397351969684963	10.894170426107099	-7.408972045472556
1734657962.1605902	0.9557600174844639	-0.29164998907221	0.004649989072210012	-5.462092197557948	13.407797246196923	-3.470602141846838
1734657962.2105901	0.9951657521374365	-0.23979418162204968	-0.0153369914502541	2.202387414302372	12.608413910507904	-5.068814572913043
1734657962.26059	0.9845374120263317	-0.20653458760303153	0.02219388196050233	-4.2919057907838765	11.191270527189252	-4.577341184101344
1734657962.3105903	0.9709414129400533	-0.23666070409134726	0.035960941960035575	-7.8882423882016015	14.068006898192706	-4.37195290199822
1734657962.3605902	0.9524560173832232	-0.26753588700904896	0.024	-6.721700077622846	16.40576365047688	-4.855763650476881
1734657962.4105902	0.951892740785307	-0.2711971848955046	0.024	-6.071115607029569	16.287475564914466	-4.737475564914467
1734657962.4605901	0.9513294641873906	-0.2748584827819604	0.024	-5.420531136436269	16.16918747935205	-4.619187479352049
1734657962.51059	0.9579758296317811	-0.26043762547220817	0.08179817344016015	-0.29412785918878936	11.025343069450837	-3.9176219353230053
1734657962.5605903	0.990670674098997	-0.21745345251845535	0.07939439478397693	1.834784730243229	15.506086107902707	-6.158038174391928
1734657962.6105902	0.952054908853512	-0.2279850248581331	0.07500623964244454	2.4491264500577645	15.260349419976894	-4.6221838748555895
1734657962.6605902	0.9418812583258177	-0.1808812583258177	0.08579589438932972	1.8520794479517457	7.621755268536063	-7.348831779180697
1734657962.7105901	0.9840576941476642	-0.23556065159525544	0.11034393484047446	-1.3081508776664237	7.336228058339406	-5.645924561166788
1734657962.76059	0.996321603827544	-0.18813658668960145	0.1526299657241149	2.713499864315851	11.915573200516032	-7.978304934308062
1734657962.8105903	0.9692165179333635	-0.21735602796713513	0.1688623505553037	7.1380729077742515	15.388958411586584	-7.089010439786946
1734657962.8605902	0.9854749239292209	-0.17087701670249741	0.1642402968414087	4.8890711675210055	11.03179221101392	-8.296358442202784
1734657962.9105902	0.9742036423019679	-0.18474936332065486	0.15123497188688606	1.1868886638002314	20.135519679179758	-10.117103935835953
1734657962.9605901	0.9363723600973236	-0.16955854014598537	0.2420153771289545	1.7321304136253006	9.776618978102094	-6.347695377128909
1734657963.01059	0.9825292730449644	-0.19903673869593086	0.20569115913062055	2.693996077987779	23.407326142977595	-8.598667974004073
1734657963.0605903	0.9539908038206111	-0.1741382032245163	0.2236912766562647	10.15354964774363	11.270956480156922	-5.654513943911045
1734657963.1105902	0.988803023229594	-0.12980302322959406	0.22641873149628983	4.241070599092087	14.577551810388488	-7.822066385779136
1734657963.1605902	0.9473422958726543	-0.15514098624218114	0.25	-0.7765631411034727	15.988641718931863	-9.99026192609464
1734657963.2105901	0.9499764015306934	-0.16392133843564485	0.25	1.8663228691290992	12.976980916573815	-8.76101261900972
1734657963.26059	0.9492743141133335	-0.1244563589866669	0.2701795512666664	-0.00576063693325235	7.712917693600025	-7.451945129066684
1734657963.3105903	0.9453720291373672	-0.13311334031889482	0.2795831841537162	5.0143425534332735	11.053152971178212	-9.43208407923142
1734657963.3605902	0.9797902846337914	-0.05818542695068707	0.32793009487793046	-0.26511271565073935	4.87404022690381	-9.462979886548096
1734657963.4105902	0.9378657351205177	-0.14999787346265583	0.34026852975896454	-4.92405984444463	13.686541613991611	-8.782405833744965
1734657963.4605901	0.9177578625929202	-0.1291480261649807	0.3411210687035399	2.7215251907522084	12.921745038805339	-9.704890075973433
1734657963.51059	0.9297761224088814	-0.1643443584831526	0.33511193879555934	3.142164284310848	9.85708878573525	-11.447537749287799
1734657963.5605903	0.9539524105830675	-0.10409530328274862	0.3419524105830676	10.136666251837054	11.06000871142186	-9.426681185703101
1734657963.6105902	0.9460993422910535	-0.03846578972140473	0.3462671051392976	5.174750164734146	12.99402574355507	-12.38009818567298
1734657963.6605902	0.9325684067025017	-0.068	0.38355790589805416	-4.912527766747043	10.561158117961083	-11.333736116626477
1734657963.7105901	0.927092611528574	-0.054313120984414195	0.39590738847142604	-1.4154356619088149	8.310319744818166	-8.983924848454853
1734657963.76059	0.9186520471281298	-0.04993421207658387	0.3940219293078054	0.7441762886597408	8.37717835051546	-9.481963917525764
1734657963.8105903	0.9237996956308298	-0.0730986303387336	0.3863004565537555	-1.117556586483404	8.19701065292096	-9.181684421534936
1734657963.8605902	0.9255784854870504	-0.048959660288219416	0.3601973106858813	3.817670204268884	5.437082803684353	-8.44237650397662
1734657963.9105902	0.910265294675804	-0.04928911755403269	0.34386735266209806	0.012260369003689986	4.386426568265683	-7.933213284132841
1734657963.9605901	0.9132818632518132	-0.04263088204891215	0.37812745300725237	-3.7386521381345803	-1.3511373684061314	-5.758323486847701
1734657964.01059	0.920656981384342	-0.04475726396174351	0.3804934424817603	-3.8280226061921225	-1.9234251169885936	-7.388410988118517
1734657964.0605903	0.9159064346264159	-0.025167391792450686	0.41498026104528224	-0.25067918373561476	-2.282419968566176	-4.847244332792519
1734657964.1105902	0.9236350206611524	-0.0017299586776951868	0.40827004132230477	2.362622933882897	-3.643322830578997	-5.781891528923788
1734657964.1605902	0.9261848641991858	-0.030311382638272204	0.3924702469714994	-0.008856290736055428	-0.3752743243469665	-9.042940493942998
1734657964.2105901	0.9135956329058198	-0.03726995568338538	0.3704721392304755	1.4542393684149035	-5.370259560355783	-0.8518601238516692
1734657964.26059	0.918875576152813	-0.053593317885390256	0.3840380197955526	-0.015725889643319224	-13.57766125988659	-0.7987903935979558
1734657964.3105903	0.9432626216370915	0.040230526280344146	0.3503279841072087	-16.539998989864017	-13.06134240210102	-7.726492945890239
1734657964.3605902	0.9334669265019969	0.002925097438248815	0.3497003897529952	1.9871352310161254	-12.115856068924725	-3.860486358645166
1734657964.4105902	0.9469632530096251	0.007986219878609438	0.3699448795144378	2.518553087253991	-13.296784638342203	-3.1519292169946787
1734657964.4605901	0.9255483964519345	-0.0038709704148384445	0.3831096875763861	6.074643739305948	-8.255032650981251	-0.28045131353809427
1734657964.51059	0.9438348440407999	0.030038927551034586	0.47248544985714486	5.773306934286627	-6.487579427143869	-1.9559259600005559
1734657964.5605903	0.9647648198999867	-0.03807318052120093	0.35938501637272846	12.735850428003694	-0.8880498573321021	-3.1226839547260976
1734657964.6105902	0.9678581896104222	0.059509605936901584	0.3731875614101397	15.222982753250669	1.291125012977553	-2.459307480512739
1734657964.6605902	0.9656777831912302	0.02562276086073894	0.31978782785221277	-0.963222168087698	10.963593260251725	-11.849870848558668
1734657964.7105901	0.9299163605359313	-0.03738546000812108	0.338520001624036	-1.3208363946406871	6.553017799431525	-8.69094518067393
1734657964.76059	1.0747988186217285	-0.031826864675454446	0.4337982112464548	2.4311522109127246	17.443499149007337	-11.570227465376423
1734657964.8105903	0.8766712117574011	-0.012530190850755388	0.320624074518732	8.087604272407656	-10.814795578555595	-2.3870354129578164
1734657964.8605902	0.9392955557911368	0.1422683596986145	0.542697188357658	-0.3525386134570119	-4.843898418083128	-5.658386240581704
1734657964.9105902	0.8583233573728833	0.1595131834396688	0.47933988970088837	-2.487548948104247	-3.1791691413262226	-6.123827889082311
1734657964.9605901	0.865773789436948	0.11305754821667711	0.4451555543481209	3.003857743821092	-3.9461253832152368	-4.43652415692648
1734657965.01059	0.8733117451270948	0.06840766670466242	0.41183213723925666	8.494505505528481	-4.678249606747966	-2.754677054599296
1734657965.0605903	0.883670412249706	0.08195361601884628	0.4062543934040045	13.960694464075615	-4.287807538280314	-1.248686219081208
1734657965.1105902	0.8909693381370886	0.10055764670964802	0.398258382112883	9.29537700958025	-7.967122017577173	-4.912877982422827
1734657965.1605902	0.9391360310512842	0.11068015525642085	0.3522040465769262	-7.087628045255595	-6.647875547113717	-3.749504996283756
1734657965.2105901	0.9308694350745047	0.08017209104306586	0.38984075323399375	-0.3896745374160493	-7.596558179138683	0.17856590797445127
1734657947.9105902	0.954	0.104	0.331	-6.37	-2.1	-0.21
1734657947.9605901	0.9561723642953167	0.0791672568348606	0.3314450382315509	-7.587143982713758	-3.6965965993943697	0.34396840087210273
1734657948.01059	0.9510568488044258	0.07709625161618375	0.3650765812164316	-6.188337293219138	-2.512038122301055	0.7242009374239244
1734657948.0605903	0.9541178829020772	0.05804543011011973	0.3733378277622883	-4.139374808727801	-0.48699479869830853	1.4895200780037083
1734657948.1105902	0.9355449018687063	0.1062571082458084	0.3458714490819694	1.1234250301643556	-2.8532866972758373	3.1825699276206945
1734657948.1605902	0.9530558327730988	0.1088756237394721	0.3326395819327468	-3.883490727943111	1.12390829411691	1.5521697573522966
1734657948.2105901	0.9460502360484563	0.09311295344912408	0.31512574029984985	-5.170757682723787	0.633508485387398	1.1230934879143162
1734657948.26059	0.9462542557113752	0.07999999631643932	0.3418814125943179	-3.1334019697107363	-0.7569501370881441	4.024399699342907
1734657948.3105903	0.9397125348456642	0.07806874965491148	0.34728747273568894	-6.095671122357999	-0.9896215934933303	2.5803864930852756
1734657948.3605902	0.9368252188930775	0.05100002581490673	0.3640297460482531	-8.942042744243826	2.4999587897576183	2.7359846986816043
1734657948.4105902	0.9364018483926366	0.0457138456208008	0.3393987677382423	-4.353741225030882	2.267913741676961	3.224049290470308
1734657948.4605901	0.9541012767185474	0.062472340770914556	0.3595506383592737	-7.79359148613813	-0.30359148613813	2.306068085643645
1734657948.51059	0.9390116667045988	0.020032909692563956	0.35200586072797546	-8.18969179164344	-0.6996958432435003	2.240050200030581
1734657948.5605903	0.9217766810967793	0.022460474359852076	0.3577411063661589	-7.615889365239037	-2.2500987062688997	1.7233004309020021
1734657948.6105902	0.9509285916267798	0.032395809858231026	0.3802559269090451	-7.4293865178444465	-0.4850050433408384	-1.6327075127733086
1734657948.6605902	0.928824813988021	0.0275891528485863	0.363	-1.9229925595208357	-2.7712406994010443	2.9482481398802087
1734657948.7105901	0.9302917403286443	0.028636957377602933	0.363	-1.981669613145764	-2.844587016432205	2.9629174032864407
1734657948.76059	0.9317586526796877	0.02968475191406255	0.363	-2.040346107187506	-2.9179326339843823	2.977586526796876
1734657948.8105903	0.9332255580360215	0.030732541454300984	0.363	-2.0990223214408554	-2.99127790180107	2.9922555803602133
1734657948.8605902	0.9346924843765847	0.03178034598327463	0.363	-2.157699375063382	-3.064624218829229	3.006924843765846
1734657948.9105902	0.9485134481620382	0.0343071740764455	0.3633295962966351	-2.816008741404749	-2.4109195178307954	1.97177166559951
1734657948.9605901	0.9656110405783173	0.0372263339999658	0.36374668489970685	-3.6333656602746576	-1.564342733287605	0.6581687397312185
1734657949.01059	0.9494309466561859	0.04473621136555346	0.37631144495473395	-4.3625560948703725	4.1798734049299595	0.6061184031379449
1734657949.0605903	0.9062623774845078	2.9864443676363983e-07	0.42187051110161494	4.472200013485585	4.469653207432732	4.647622589382907
1734657949.1105902	0.9290886429191856	-5.319876232254394e-05	0.4139468087439147	6.367515581254406	1.4687615562562328	7.287445316305804
1734657949.1605902	0.947723253053193	-0.009	0.3920770331582456	10.072410680890508	2.1796861431382437	10.719686143138244
1734657949.2105901	0.9409023542977768	-0.008999969660142578	0.3878140059132213	12.041920966003499	2.4184017676885703	10.958421267942386
1734657949.26059	0.9206470919980364	-0.0036976921470109505	0.3811796799684732	13.656026953245453	0.3604986729887188	12.308446243844083
1734657949.3105903	0.9501081142385215	0.0032428492462077386	0.3538119785577101	-5.306248898473022	-10.826954911766565	10.670262953967612
1734657949.3605902	0.9425449905260933	0.013687814011126294	0.3262381325237082	-17.348126963191167	-17.322957750839578	9.78741359129788
1734657949.4105902	0.9291015396819674	0.0229301914686474	0.3111142321422132	-30.6991584033462	-15.970217430497964	2.4355295135758848
1734657949.4605901	0.962097023999878	-0.07552870892299235	0.3740356233841835	-21.22261533541617	-23.935701956901386	5.190532135330721
1734657949.51059	0.967689363783008	-0.0794004190748131	0.39382393955827866	-19.777165164080884	-24.92941470526761	7.659787084105566
1734657949.5605903	0.9500993307930128	-0.11456693865920911	0.35095025971114713	-0.5064778603455729	-20.224070213188753	11.345936590671807
1734657949.6105902	0.9906088520069555	-0.06282522635762422	0.31982520669541775	-5.673002153156077	-13.8204954861958	12.472131891547573
1734657949.6605902	0.9893109124593572	-0.0688824085229992	0.3258824085229992	-5.915296340919969	-13.457055488620046	12.744708383534965
1734657949.7105901	0.9880127424969877	-0.07493982479914822	0.3319394242574633	-6.157569281308629	-13.093607843748527	13.017251528793825
1734657949.76059	0.9544965655455089	-0.1072298543433136	0.2942298543433136	-3.3054331184252623	-10.689887744960059	7.377195509798402
1734657949.8105903	0.9584244938224525	-0.09850112483899427	0.2855011248389942	1.0021948919563273	-11.453651576588001	7.40774606306352
1734657949.8605902	0.9816227460672134	-0.09800000047785705	0.20723982605481484	5.475123573066858	-13.045577328194275	9.870132634145417
1734657949.9105902	0.9751668251761894	-0.143222116549207	0.2618331748238106	-0.8672259207777534	-6.873646247388658	4.641387039611123
1734657949.9605901	0.967886179644157	-0.14335325269753346	0.266	-0.6174228025636989	-6.058983712454501	4.69
1734657950.01059	0.9510765448414057	-0.12906501387233427	0.2659999774564747	0.20624487762961127	-6.647319685807168	4.69000045413708
1734657950.0605903	0.9661268442669254	-0.1160403274742522	0.2541806776743054	-2.851268379919581	-5.467955059218809	4.928099075351892
1734657950.1105902	0.9529771286533048	-0.14759951363643467	0.21270026769203842	-3.17418746698331	-9.042971260657966	4.892471399710247
1734657950.1605902	0.9448158375048517	-0.1579845088223878	0.2107073992615666	-3.904939860473911	-8.341806992227541	4.810602330742514
1734657950.2105901	0.9377199540975915	-0.15965383377515233	0.21529882656037688	-3.64197777347679	-8.955433300140808	5.015143488226177
1734657950.26059	0.9655955465480269	-0.10159725941417048	0.1926006851464573	-5.20000482477066	-13.726988009936996	6.440479602520164
1734657950.3105903	0.9887130830753259	-0.11582343573866202	0.1890441410653345	-10.365885102601652	-13.789227531356646	3.950898745734143
1734657950.3605902	0.9582049513596731	-0.15762293070443403	0.17079509513922966	-14.233529097136936	-21.11015537275582	3.023771178490656
1734657950.4105902	0.95948470615517	-0.1635952953907929	0.16951529384483	-16.712047587179086	-20.63237636873656	2.96404704609207
1734657950.4605901	0.9861087399998864	-0.22091086053737025	0.19027716676934253	-8.588589894721107	-16.705729685163934	2.9240339501233974
1734657950.51059	0.9960196735491038	-0.2195491838727593	0.189568857421863	-2.3521543619758893	-17.098322884113422	5.436168522137534
1734657950.5605903	0.9935235212897905	-0.2133088032244761	0.18083232451426648	0.03583129943380925	-16.25379136971243	6.979622669146242
1734657950.6105902	0.9910273333227667	-0.20706833330691687	0.1720956666296837	2.423851121219786	-15.40924777420276	8.523098895422544
1734657950.6605902	0.9613821987909578	-0.2265340362712675	0.1407068072542535	4.437485505513266	-13.558742752756633	8.34392619151691
1734657950.7105901	0.961814626375376	-0.21356241841052293	0.1381123545894518	8.190657578592095	-15.435307745210373	9.705964519791141
1734657950.76059	0.968072649129675	-0.23722789156105056	0.12028481991077264	10.193160143929433	-12.758853355158225	10.445952667105114
1734657950.8105903	0.9879560193234735	-0.2114698670236052	0.06473521836871764	4.45548345632648	-13.99984717802917	8.778068949302355
1734657950.8605902	0.9748491222236595	-0.20860356383842046	0.04639072264229889	-10.53938314112318	-11.839479980230514	9.672448590384146
1734657950.9105902	0.9675609905677734	-0.2377560377289062	0.0425322891241153	-9.459040954752297	-11.899497724735983	7.091597836352709
1734657950.9605901	0.9602728524796752	-0.2669085396034589	0.038673892541915625	-8.378676321548696	-11.959522481998334	4.510742562962255
1734657951.01059	0.9569642240086967	-0.2713214080028989	0.0420715519826064	-6.954962565276058	-12.825025916347343	3.869994240811702
1734657951.0605903	0.9544976894621837	-0.2704992298207279	0.04700462107563247	-5.458598273724814	-13.860970425882822	3.639784349803817
1734657951.1105902	0.9507110955811773	-0.26149835018678586	0.04673013164750897	-2.9706558319873455	-15.93201008380135	4.186671887444963
1734657951.1605902	0.9712292816070432	-0.253707183929567	0.0772803879471752	-7.315290669129823	-12.782831756413778	1.475801150027877
1734657951.2105901	0.9729743835994726	-0.2362558430314245	0.06419142791117445	-0.6575743478904063	-9.91206099110316	0.987154027841013
1734657951.26059	0.9663596225999336	-0.24630921236761774	-0.007673988848587595	0.7094972971115758	-7.163992367137476	-0.4050574484434969
1734657951.3105903	0.9593688030264257	-0.262832895434927	-0.0014143420337539353	-4.33921197301378	-4.614395199232424	-0.025815476750206567
1734657951.3605902	0.952447950302529	-0.2795636084082152	0.011080964546611683	-5.348116038495957	-4.42133688893436	0.42323863027236325
1734657951.4105902	0.9661007725697104	-0.2462820339227003	-0.0069517067300323	0.255457231463058	-11.565821046893928	2.4014552617234823
1734657951.4605901	0.9697341467281939	-0.2703182014326677	0.0031099447857677854	-1.2118669479244828	-10.000675255547216	2.010168813886805
1734657951.51059	0.9733674862364186	-0.2943541397178459	0.013171500347005153	-2.679177133938266	-8.43554439046585	1.6188860976164625
1734657951.5605903	0.977000808419712	-0.3183899633919417	0.023233007931510397	-4.14648032334528	-6.870420988431702	1.2276052471079255
1734657951.6105902	0.9636946471506125	-0.2541610274312359	-0.003832167423838625	-3.695178915362947	-11.363967502736529	3.5053922233595247
1734657951.6605902	0.9632613851404396	-0.2671584457868163	-0.0064316891573632	-6.4549766554006585	-9.908254071876575	4.506200325584855
1734657951.7105901	0.9969917268797452	-0.25905945991106566	-0.06059903954651031	-15.073103606539375	-11.800620561327912	5.382960316033101
1734657951.76059	0.8851969128339533	-0.248588833075071	-0.13250930577077416	-6.05300132817902	-16.23313028079084	2.643521565889693
1734657951.8105903	0.9417511930094236	-0.28910533230525864	-0.09874555641228439	-10.129974063216657	-15.760437789771983	2.1117425134934793
1734657951.8605902	0.9198751518801598	-0.3142618558152452	-0.10215469626424843	-7.002941048333803	-18.13997676794991	2.512496997463964
1734657951.9105902	0.9856518826528842	-0.408575570605987	-0.0648446486177113	0.6649480991362866	-15.633206059870268	7.3613602188768255
1734657951.9605901	0.9349999844712082	-0.3570481484261392	-0.11487959884761785	10.011245108516414	-14.796969233099722	8.987416996544631
1734657952.01059	0.9322861473702849	-0.35194681455946847	-0.12237467407189567	8.51748806695674	-13.008844000502654	9.856159844112668
1734657952.0605903	0.9379440828996903	-0.3052372161775217	-0.14522219920812077	6.135691080104129	-9.985695361588311	7.145885422632805
1734657952.1105902	0.9555424591435464	-0.2621209750983112	-0.13818301634258134	7.182776319041013	-11.032776319041014	5.298041789927623
1734657952.1605902	0.9403035074941234	-0.2596964925058765	-0.1231744948117606	-2.49577887011677	-6.239030887765396	0.3042211298832304
1734657952.2105901	0.9384834257400889	-0.261516574259911	-0.12443455141070753	-2.7701911961096553	-6.0234212030567	0.029808803890344997
1734657952.26059	0.9366633613435577	-0.26333663865644225	-0.12569459599292146	-3.044600905125138	-5.807813574544535	-0.24460090512513774
1734657952.3105903	0.9348433056256787	-0.26515669437432116	-0.12695463456683762	-3.3190093056668792	-5.592206974118882	-0.5190093056668788
1734657952.3605902	0.9330232238717188	-0.2669767761282811	-0.12821469116573297	-3.5934216316485332	-5.376597289419009	-0.7934216316485336
1734657952.4105902	0.9312031507964112	-0.2687968492035887	-0.1294747417563306	-3.867832649156457	-5.160988632805642	-1.0678326491564565
1734657952.4605901	0.9293830789521758	-0.2706172414292411	-0.13073456355560836	-4.142251282403625	-4.945368396515581	-1.342255982992251
1734657952.51059	0.9292948975647366	-0.32669604593480267	-0.09096045934802648	-5.518928617447412	-2.8857410932875207	-3.5404196785217446
1734657952.5605903	0.9397505511267412	-0.3262603937030524	-0.08660393703052446	-4.299102368546851	-2.3063236250597545	-2.59505433562381
1734657952.6105902	0.9465641157687488	-0.30004735318349174	-0.13490331275419543	-8.871218540555919	0.22021438327285825	-3.9883421847804277
1734657952.6605902	0.9393744741723138	-0.3167378680793802	-0.1072246845033883	-3.4064081271442253	-1.7982538277830982	-2.7921360423814083
1734657952.7105901	0.9421993141172417	-0.3147604801179308	-0.10891958847034493	-3.228443210613779	-1.106168041275807	-2.732814403537926
1734657952.76059	0.9450241271226274	-0.31278311101416084	-0.11061447627357643	-3.050479991274473	-0.41408885495628395	-2.673493330424824
1734657952.8105903	0.9478489266583964	-0.31080575133912247	-0.1123093559950378	-2.8725176205210228	0.27798703130713337	-2.614172540173674
1734657952.8605902	0.952978473172311	-0.2861291551481256	-0.1299085149890633	-1.9645204724472878	-0.2406682157929001	-2.7640582723671034
1734657952.9105902	0.9491987230713582	-0.283152234625123	-0.1445657222890502	-6.868639667224658	-0.3745670387536907	-5.820209498734007
1734657952.9605901	0.9876240344539156	-0.28376502153369715	-0.10109399138652111	2.2028969852823925	1.5555321617342202	-3.749476382338871
1734657953.01059	0.9853856602323974	-0.2823660376452483	-0.10165358494190062	2.398754729665227	2.064762297129591	-3.9845056755982733
1734657953.0605903	0.9831472966841673	-0.2809670604276046	-0.10221317582895811	2.594611540135357	2.573990004351929	-4.219533848162428
1734657953.1105902	0.9809089011159203	-0.2795680631974502	-0.10277277472101981	2.7904711523569623	3.083224996128102	-4.4545653828283545
1734657953.1605902	0.9804382654791663	-0.2360449709196427	-0.1151011175734127	1.668190443888938	1.252139468472203	-4.528765309583328
1734657953.2105901	0.9857856192009666	-0.2574680829016747	-0.1034355693505915	0.18425910961764863	2.622008920515238	-4.45549518528129
1734657953.26059	0.9707053549627592	-0.29284920441134155	-0.08071924724291148	1.6095137701946718	4.051875457820551	-3.68937484739315
1734657953.3105903	0.9631991783617825	-0.2861770474326954	-0.08488934535456527	1.2008441552525984	5.628172544025692	-3.1639424853247693
1734657953.3605902	0.9730995030579871	-0.23073468620817775	-0.08206634435879016	0.5913195729791537	4.247177875390527	-3.601318574569467
1734657953.4105902	0.9341765638723528	-0.2608330690283335	-0.1070096329006863	-2.4177527162421524	5.020112187306854	-3.136291922839205
1734657953.4605901	0.9781176240764123	-0.2236768268156112	-0.08947049630564867	-5.418858922325243	-1.7870105604655766	-4.13
1734657953.51059	0.9764034439549497	-0.2502459783613818	-0.08261389686421074	-8.058619640877566	1.8126681854008837	-4.129997098578177
1734657953.5605903	0.9521792694024416	-0.289999734615046	-0.04917933088843782	-5.167474232436065	0.51195313998573	-2.6088164622824763
1734657953.6105902	0.9539694930592216	-0.29	-0.050969493059221466	-0.8436742619799551	2.830493511691907	-2.7967967712182626
1734657953.6605902	0.9664185834877496	-0.2533023141857113	-0.0706976858142886	0.4786065884290713	3.6969768581428863	1.0597685814288655
1734657953.7105901	0.9593589375902418	-0.2625642496390323	-0.08028212481951613	0.24680902775685462	5.684371843415323	-0.15168339643991904
1734657953.76059	0.9585203218069427	-0.2659186797845825	-0.08195933928140883	0.5696768740387568	5.977884759102431	-0.5332537488880685
1734657953.8105903	0.956078330146523	-0.25839161947089856	-0.0778755308476157	1.913394292258838	5.464993597667868	-1.7340378719253902
1734657953.8605902	0.9580634218234557	-0.23831914670671386	-0.06668088311206086	4.887300936166747	3.755442870798447	-3.3443893393423885
1734657953.9105902	0.9892353981193184	-0.2399597577957536	-0.0650402422042464	7.700984619717428	2.549578020121102	-1.1049306087963329
1734657953.9605901	0.9351165845512119	-0.22047310346547305	-0.013311658455121176	5.085673564919004	2.173609194160278	-1.9546620659846674
1734657954.01059	0.9493133928242716	-0.2025851250414177	-0.014731339282427088	3.3167512540957533	3.46551874700872	-5.055244992820927
1734657954.0605903	0.9635101334023844	-0.18469723191299553	-0.016151013340238402	1.5478373780628958	4.7574221396169865	-8.155813135080766
1734657954.1105902	0.9941051028783175	-0.23985146710297203	0.002538098790799307	7.120079387592523	11.11353156370669	-9.135504795188881
1734657954.1605902	0.9684434967571542	-0.2102227325153784	-0.0123363950922706	9.31027555830436	4.005545349692431	-0.0699540736159401
1734657954.2105901	0.9798365764060443	-0.20408821068700986	0.02447176709147358	5.997526496133093	4.128266865889888	-0.6220877733347776
1734657954.26059	0.9950181992777325	-0.2332020920243868	0.030006091661947426	2.9713932839603356	8.977543357079824	-2.674147644011261
1734657954.3105903	0.9984004903637582	-0.25963525455235326	0.04436447313471205	3.772446421688453	11.310780244526196	-5.1548226706911695
1734657954.3605902	1.001461273998577	-0.2540704109116783	0.049929589088321645	4.298346168846396	11.719824797991642	-6.9078205628213185
1734657954.4105902	1.0045220408921438	-0.2485053801961018	0.0554946198038981	4.824241571468376	12.128854555586514	-8.660805238227919
1734657954.4605901	0.954588242462594	-0.17139216164172943	0.08627452533562067	17.06627434253947	11.179415779052741	-2.6298095249277855
1734657954.51059	0.9599126858505711	-0.17494178912747776	0.0978106280094244	16.94199904933043	14.16105872401088	-6.7917079905493765
1734657954.5605903	0.9933757956615732	-0.1964957799038618	0.07000018565473203	-3.9089828141881924	9.122728971284678	-11.217327788530058
1734657954.6105902	1.0142858622350917	-0.180071192399341	0.0923570375903225	0.7624397211670808	3.9550460615065646	-8.799990553047625
1734657954.6605902	1.0159642247631622	-0.1775536628552564	0.0915178876184188	0.2043952662485119	4.366235066974781	-8.682504266578634
1734657954.7105901	0.9701897561684353	-0.2048926703044772	0.12499371581675306	-10.794484956655419	4.805191361704397	-7.923272854422244
1734657954.76059	0.9854958972412818	-0.1770961307838232	0.1047198131659667	4.437983652022092	7.929038692161768	-7.233552042036701
1734657954.8105903	0.9941574127131532	-0.16607238381962328	0.1204680231148238	5.815952022547088	8.039276161803768	-4.532734035807707
1734657954.8605902	0.9990507442207467	-0.1601391069935404	0.1309116375924351	7.594602352015466	7.029212243662572	-6.028023591071479
1734657954.9105902	1.0099332182591492	-0.1576755708987801	0.1382977164048795	8.165420074170784	4.750379184121364	-4.910284388091023
1734657954.9605901	0.9878219521881372	-0.13276344194725714	0.16976587568602425	5.315574035347748	9.116561052736953	-5.328540643742425
1734657955.01059	0.9820000051446236	-0.13263485741976322	0.17797270627416156	6.377903238787023	9.473177311922578	-7.1815749334316825
1734657955.0605903	0.984697269564867	-0.14788091121895736	0.17601619766701504	12.403953474029255	11.135286371731596	-8.439339720888167
1734657955.1105902	0.9830201679798724	-0.13614117585910646	0.1705655459345851	11.318058766967345	11.164647060352234	-7.8817058533075555
1734657955.1605902	0.981343045189822	-0.1244013163287543	0.1651148968669216	10.232121760409774	11.193996709178114	-7.32406252561583
1734657955.2105901	0.9796771214085406	-0.12662984227805663	0.1752439629648457	8.250662183280907	10.690704611558594	-7.487791646477444
1734657955.26059	0.9653453018087819	-0.13610788615107114	0.20879863729810583	5.042009954263485	7.422016534880724	-8.250421686057763
1734657955.3105903	0.9664090644294973	-0.11001529340497997	0.2621815005691832	1.3353164711945649	7.1654616840423335	-5.222443552042497
1734657955.3605902	0.977199495649004	-0.12013112705470567	0.24523494187124897	5.281363621456995	6.110666606982314	-5.692187367594355
1734657955.4105902	1.0017480937907428	-0.1150521185260532	0.2232258469462305	5.8739195052937925	10.73257214129158	-6.640271208470068
1734657955.4605901	1.0011731187510746	-0.1174800283065515	0.24036143912462632	7.268901439682813	11.474432278444615	-6.534237994493328
1734657955.51059	0.973751426022618	-0.0921892792055494	0.2802026654836958	8.063651954081283	8.648953383222414	-2.9345162964371085
1734657955.5605903	0.9670045714293477	-0.08201364709737538	0.2750317192444295	7.099778454984325	12.03237307932335	-4.995956091882521
1734657955.6105902	0.974726241338694	-0.04127379015000527	0.28646375077276015	4.954335822937379	4.575820065231557	-7.668322633044575
1734657955.6605902	0.9565320963538944	-0.0570730015852633	0.2903561990488419	-2.924669667094701	15.097466966709469	-7.520044044387373
1734657955.7105901	0.9363568036734599	-0.0658447553551198	0.28509315067280333	-1.082569089168009	14.913197705974643	-7.765673209768914
1734657955.76059	0.9371988226321384	-0.04579817434256377	0.2978001904900536	0.35007441842092296	4.423490740557827	-10.710070976792785
1734657955.8105903	0.9572788754514157	-0.0446677299752989	0.2914451907100462	2.1874323068024606	5.116031944326661	-10.743024542505463
1734657955.8605902	0.9632568857325193	-0.04979161634215947	0.29486107756143964	1.9184401420366248	6.102386145865709	-10.593577856687014
1734657955.9105902	0.930741926640715	-0.0606958714841822	0.3091167278907835	0.2121492406381928	4.308928121059267	-6.496881956247601
1734657955.9605901	0.9336434853503122	-0.06770290445859338	0.3098116178343737	-3.3960165605076997	5.464868076434456	-7.736725299362464
1734657956.01059	0.9310979391433711	-0.06558161595280917	0.3013264638112369	-2.653565583483233	5.999432779892072	-7.499140986714634
1734657956.0605903	0.9285524050744128	-0.06346033756201051	0.29284135024804236	-1.9111181467037144	6.533994934373326	-7.261557806945189
1734657956.1105902	0.9441229278940806	-0.03073617551713361	0.3420614244314146	-10.997233561852589	-2.132946087110035	-5.925652913455881
1734657956.1605902	0.9356786991654524	-0.0014644986090872	0.3598928997218174	-13.153113823022917	-9.093724665518613	-2.593748509736389
1734657956.2105901	0.9509388562494484	0.0020526756097873117	0.39324783250567363	-7.840764648975071	-7.426549840855867	-3.8067173465860313
1734657956.26059	0.9203236492880413	-0.029459201125484766	0.36889765060992574	7.899349282600758	-8.252545022937962	1.6102905102985314
1734657956.3105903	0.9390195940191368	-0.0009914261193306774	0.3519643270208857	13.442570262269806	-7.62893058243818	1.0436134220411288
1734657956.3605902	0.9611812087575412	0.00885831500335171	0.31174521373631375	16.37284871349714	-6.422356412089413	-6.138354689943972
1734657956.4105902	0.9637573951490864	0.0414733994437258	0.4284556291054807	1.4550883021802905	-2.3493498862935063	-4.71650883021803
1734657956.4605901	0.9210000783011721	-0.06887378172249659	0.27330187980182963	18.39420200403877	-9.56817855380965	-2.632965396619794
1734657956.51059	0.9346842451133024	-0.028948669329421056	0.24372724039471189	23.812733746236773	-13.580246090286536	1.2885212727708368
1734657956.5605903	0.9720656976146974	-0.021379975044792686	0.3416621416850988	7.101583981657658	-9.908552088504365	-4.768379217551789
1734657956.6105902	0.9416910837252522	0.022012737535353946	0.3390592357478788	7.344471330197982	-9.665528669802017	0.030808771410153035
1734657956.6605902	0.9938038482627984	0.0901913414087034	0.3149807586860076	-4.602902148447235	-1.8712935546582925	-10.283602263097553
1734657956.7105901	0.934505664827178	0.058199985581260896	0.36206285300821933	5.838659942001561	-0.30343997338863904	-5.468933071807343
1734657956.76059	0.994177065484125	0.08424839694096647	0.32531964963979765	4.92436386206073	11.143280263654939	-13.683080260500349
1734657956.8105903	0.9445847995210295	0.061630259048578995	0.28838376000069615	3.9957764995284393	14.029067943303247	-9.85119120938817
1734657956.8605902	0.9546815494957562	0.053400716541460246	0.3014418301489826	-0.8733076269955449	5.236107602749435	-4.692636250596505
1734657956.9105902	0.9451654868862872	0.0490752213119487	0.2901955754110668	-2.6294601473487944	4.63053098367283	-5.72209732775619
1734657956.9605901	0.9441720173956203	0.01918959530253874	0.3032491498380041	-0.9790185185094032	1.9535889732260965	-3.8271300407293056
1734657957.01059	0.9597940009335342	0.0518872364595123	0.3028872289489585	-1.794628145037756	-1.4027391794189668	0.30642241448458096
1734657957.0605903	0.9549688957311601	0.057875414105032885	0.30493771335175557	-2.3553491363476873	-1.8069199802473577	0.9690978082022306
1734657957.1105902	0.9566661958504602	0.06783590442045873	0.3108359082945662	-1.7851483410034974	-2.7184145736225043	1.5748516250980615
1734657957.1605902	0.9558390931302466	0.0723849877836433	0.3153849877836433	-2.045685663972298	-2.863158702206832	1.314314336027702
1734657957.2105901	0.9550119374560361	0.07693411624208618	0.31993410311773973	-2.306200251926473	-3.007910854440028	1.0537819459589066
1734657957.26059	0.9460404733991632	0.08647509734340816	0.3271815233088036	1.76205194172825	-4.562039839569997	2.010902756227952
1734657957.3105903	0.9512381315467705	0.057976149955132075	0.3408811982079934	-1.6683017349205844	5.213330206636481	2.616660137562335
1734657957.3605902	0.9529460578581124	0.05242531196113492	0.3489937748260335	-1.4591079123812398	6.707800625848288	2.5568879749660685
1734657957.4105902	0.9420841353616888	0.0641586463831108	0.3466917106488668	-5.358618441477802	2.907271033840422	3.273635516920211
1734657957.4605901	0.9885708844604995	0.034712653381498496	0.3544329243160038	-8.817852311826558	3.78	5.25
1734657957.51059	0.98507216248484	0.02421651097677211	0.3824225881956394	-11.083246438310626	3.7799947267904956	5.250003763233128
1734657957.5605903	0.9750607643343195	0.006514750949351129	0.4038325037404519	-2.7006174794079243	1.0153143035635575	7.223021703735595
1734657957.6105902	0.94554028406399	0.028530958733985094	0.40866326988639123	-1.1214262188202386	6.673628413015034	4.937820093131124
1734657957.6605902	0.93283734195033	0.0393102322753848	0.4217439870745051	-0.0710558676768788	5.092079095215364	1.891055867676879
1734657957.7105901	0.9366397532758903	0.02316438262668098	0.41572032231744116	-0.37777533325303136	4.648007391157602	2.4889159182618004
1734657957.76059	0.9193516844200755	-0.011648315579924339	0.42038924767126656	-1.7967872175455701	1.419449467397732	5.277066510670305
1734657957.8105903	0.9130565772994215	-0.017943422700578585	0.43387876292981126	-6.329264344416614	1.6083026810173588	-0.5773831115381265
1734657957.8605902	0.9698909117988764	-0.02162372675126318	0.3988118985732053	1.267606213738702	-1.4145508232532207	7.044345982155332
1734657957.9105902	0.9518200569109796	0.0132843528480746	0.4505439544712162	-1.85105689414221	-1.0376927480594702	0.6112503577983196
1734657957.9605901	0.8805367631084153	-0.014907352621683056	0.39055588426990157	-7.567385632441213	-1.7759412659287408	6.3981800631918055
1734657958.01059	0.8891323840443979	-0.016626529723335375	0.380241217925921	-9.703377885150934	-1.294595116157856	6.849432662268442
1734657958.0605903	0.9497128551048679	-0.05648503772500978	0.3488476404873155	-14.507856584905463	-2.422837521063034	0.8548347877858262
1734657958.1105902	0.8971625480806209	-0.035465019232248304	0.3392131338147805	-8.806136466747375	-11.557910391985386	7.414875247935814
1734657958.1605902	0.9242611734645828	-0.0741450963692126	0.3142432959212504	-19.39	-11.987030714487524	6.682655793822708
1734657958.2105901	0.9664524185090442	-0.03591863473700771	0.3019150284150175	-12.848362586761333	-19.039524171596987	6.5288152192260505
1734657958.26059	0.9738448188494638	-0.0790959854754512	0.31057537665948276	-17.90272777094522	-19.285163349314022	7.6319097626013885
1734657958.3105903	0.9811623006161031	-0.10594570427026827	0.3304186927987913	-12.975989831033536	-22.031040898307275	4.352506630699158
1734657958.3605902	0.9527343459404286	-0.1277890323068099	0.32705473751727254	-4.288745798330847	-22.469859749975452	7.729669171445691
1734657958.4105902	0.942434976917788	-0.1260724961529646	0.3356375192351766	-5.580446644894083	-21.899104970860755	8.540745567724192
1734657958.4605901	0.932135800467161	-0.12435593374134908	0.34421997498285045	-6.872102804874505	-21.3283257602288	9.35180940348227
1734657958.51059	0.961052098610492	-0.12340752718776195	0.28669196342801956	2.3852789742254688	-17.131745651593793	7.719568751627473
1734657958.5605903	0.9541389755657168	-0.08175642209219997	0.2816252161945746	-10.765324621607448	-14.548367600478583	6.91349320615687
1734657958.6105902	0.9593942040495558	-0.1399086309489832	0.2514688493099302	-0.944561346187303	-13.371462556396878	6.080997440366653
1734657958.6605902	0.9639499545164488	-0.1330750682253268	0.2366626478215415	2.144812906466812	-15.663570866088278	6.280310510094632
1734657958.7105901	0.9685057260395733	-0.12624141094064015	0.22185639037138705	5.234195470585582	-17.95569341366027	6.479625514231327
1734657958.76059	0.9730614784841176	-0.11940774537822668	0.2070502965458463	8.323544594190363	-20.247786253439713	6.678944531699035
1734657958.8105903	0.990393176176938	-0.07406628045254665	0.20400002036279033	9.327203037935503	-18.424951305745736	9.978964395437021
1734657958.8605902	0.9632277768086047	-0.1281387029387795	0.21844496819654569	-6.738673921119608	-14.492014042377592	4.195786059335282
1734657958.9105902	0.9636527823660194	-0.130263911830097	0.2099443526796119	-6.3816628125437	-13.45068320325246	3.2734622657378942
1734657958.9605901	0.9725712052177586	-0.18896394137737793	0.2217501954344611	3.419921826215542	-8.052487622484128	3.2050013028964077
1734657959.01059	0.9934553203900656	-0.22116035693048158	0.20347645871264705	10.729405717230415	-9.209819721659715	3.0831867047200996
1734657959.0605903	0.9445612946926626	-0.1831790738614404	0.1749838519668288	16.46533832247262	-8.623665011565278	8.300376628716636
1734657959.1105902	0.9702251528368607	-0.14161067796700338	0.15496952261266525	5.833268996979054	-8.535457531234519	6.248172168714994
1734657959.1605902	0.972627953234006	-0.1375348818706397	0.1289766923779134	6.383024421496947	-12.007447300319088	5.394883461889568
1734657959.2105901	0.994796499299277	-0.13686745474821108	0.11110936423500355	-0.2948845026146137	-13.26011003371843	2.6288328560423633
1734657959.26059	0.9582525746435199	-0.17872008917491505	0.12540273361815643	-13.937169096821831	-13.967981581309944	4.021769250842887
1734657959.3105903	0.938152946764136	-0.24251456027035065	0.12103324929655128	-11.429085096220462	-20.391123534069557	11.423675691642059
1734657959.3605902	0.9488883283775332	-0.23290177573821066	0.11662049844392913	-8.110950268335692	-17.506879090769598	7.327198330527898
1734657959.4105902	0.9904982210422896	-0.2410071158308422	0.1234260300604134	2.0699288416915778	-22.085373581119217	9.600355791542112
1734657959.4605901	0.9964597177099105	-0.23227740604421565	0.10318223099894601	3.7739198482034695	-14.655032488447377	7.5165693191713165
1734657959.51059	0.9712705564233561	-0.21355199481408263	0.08262080770637825	7.747335018592883	-12.42212950820345	7.225043423948958
1734657959.5605903	0.9943983697432345	-0.16497006500827194	0.06831596308166693	5.3168649699927855	-13.067884958060425	1.3358252733789158
1734657959.6105902	0.9900563469518135	-0.1936281101180297	0.056157771465078256	4.283410574531654	-13.918955997444519	1.8829002840714768
1734657959.6605902	0.954807299246068	-0.2572817502404854	0.0515051098011165	-4.154831989081552	-11.963766535941264	5.252554736123787
1734657959.7105901	0.9934131796862457	-0.262215938965706	0.048441317968624505	5.8500925820795375	-19.585208309678958	5.972346372108723
1734657959.76059	1.0271590775084438	-0.23901556955115472	0.05181592652899727	4.550871885956392	-16.661948381204507	4.938872537349722
1734657959.8105903	0.98161757772416	-0.23642395052254322	0.05710693664967892	4.401070719740495	-9.319256124410886	3.337823400611445
1734657959.8605902	0.9803076326772832	-0.24471832637720714	0.05405114291366048	4.370511429136605	-7.913525740283841	2.543297157551737
1734657959.9105902	0.9782964705882352	-0.2550564705882353	0.0511623529411764	4.578658823529412	-6.669105882352941	2.102305882352941
1734657959.9605901	0.9643930929222918	-0.23620752964255515	0.005647802529421856	-6.993841067086102	-7.560459483431385	8.904970428418371
1734657960.01059	0.9659805059569198	-0.24403905507125237	-0.0016796661614777075	-9.676969263675518	-10.209688686371377	9.283476376175848
1734657960.0605903	0.9619305767712637	-0.2872583927629102	-0.006196848773380656	-10.442973380771384	-11.116480098368758	5.338134027819781
1734657960.1105902	0.948007065075012	-0.31156687209145667	0.005433093635011872	-6.942083618689667	-9.678485235156057	5.000317652984255
1734657960.1605902	0.9495209716830758	-0.3025629150492276	-0.0470778137130792	-1.8791060801689004	-10.513404844116026	4.062510924284927
1734657960.2105901	0.9459917087110963	-0.2919861811851606	-0.055008291288903596	-0.7706577755863547	-12.669226146368993	5.108916604916592
1734657960.26059	0.9418358705259622	-0.285059784209937	-0.0591641294740377	-1.100354271606997	-12.281347915756474	4.565887082059064
1734657960.3105903	0.9376800521572012	-0.278133420262002	-0.06331994784279874	-1.4300491955287054	-11.893471534672113	4.022860148540955
1734657960.3605902	0.9335241743390379	-0.27120695723172983	-0.06747582566096205	-1.7597488357696573	-11.505589604976874	3.479825446967623
1734657960.4105902	0.9308783296881123	-0.3217819947154831	-0.0674575405504494	0.261634281090785	-12.862167031188765	4.2697336249510105
1734657960.4605901	0.9260914791970886	-0.3257181852392687	-0.11218664697890993	5.305204725061606	-18.499468832319902	5.171866469789099
1734657960.51059	0.9417046973362676	-0.3534750224606433	-0.10611479971742743	6.762446621047722	-19.167367424307507	5.111148952863295
1734657960.5605903	0.9473191548208386	-0.36606406014415616	-0.0828511649247842	11.587195003861407	-19.311090190420284	5.379568881732371
1734657960.6105902	0.907042555663761	-0.41302431111378046	-0.13228560681508944	17.10510525364458	-18.17213117164607	9.193185156982988
1734657960.6605902	0.9154410273301372	-0.3979139188106653	-0.1507311350485322	18.300686038898988	-21.01167961808563	14.121551201818486
1734657960.7105901	0.9478638005445158	-0.3686725841552317	-0.13982555640768268	20.59906598629912	-23.1408114005008	12.865699341113535
1734657960.76059	0.9514162039723352	-0.32608181305195866	-0.1339992068097176	19.763129747827513	-22.534106516403586	13.288324079446708
1734657960.8105903	0.9485095675863449	-0.3165314363551329	-0.12901640157659108	18.484209737991723	-22.156243786224824	13.230191351726898
1734657960.8605902	0.9456028896206269	-0.3069809230392024	-0.12403352506393164	17.205271433075794	-21.778375650681483	13.172057792412536
1734657960.9105902	0.9324782557760056	-0.2689030233550622	-0.080309360434466	5.7795662870388185	-12.798295356601926	7.929783143519409
1734657960.9605901	0.862713524027865	-0.37647950400836433	-0.19942568081585563	-6.577148424324397	-5.282652924990983	-6.222502048769028
1734657961.01059	0.9587462606599638	-0.3452328371771937	-0.15254927361603926	-5.324418015255853	-3.899296885575692	-10.552241888883906
1734657961.0605903	0.9214213625575913	-0.4155217512424029	-0.1563481216209715	-13.376194915527748	1.9931199762373657	-9.849315779139415
1734657961.1105902	0.8875083159878109	-0.441608987701684	-0.17373932513445592	-5.645869977734309	1.2018607063822522	-10.214525827823575
1734657961.1605902	0.9025584463128106	-0.3912077684359472	-0.178696958603442	-4.0666691072427525	3.436361306722828	-7.640003660864128
1734657961.2105901	0.9107423423321294	-0.3374719616292591	-0.15330625632989633	-9.753783169028521	6.929470364028115	-8.893244864750738
1734657961.26059	0.9644598513160372	-0.30619009746408504	-0.10614008966510084	2.6347966005800676	1.930250865035219	-11.093940115573131
1734657961.3105903	0.9318115245003998	-0.32228102323641206	-0.1490317990824354	-6.643378346218305	6.347956272720284	-8.00185665582799
1734657961.3605902	0.9403153460508124	-0.32313153460508126	-0.14307925776443134	-6.623597525881438	7.340123705928106	-8.27963463765987
1734657961.4105902	0.9488194017725956	-0.3239819401772595	-0.137126418759183	-6.603754729197277	8.332263540136168	-8.557433791238127
1734657961.4605901	0.9573233201254577	-0.32483222454306176	-0.13117364024497175	-6.583911068968638	9.324399427585844	-8.835237432194624
1734657961.51059	0.9347337948161653	-0.3037915521255804	-0.14075306219596034	-6.4296978245834495	8.800007746171183	-9.665765044291202
1734657961.5605903	0.956376473186629	-0.2523997179923547	-0.1458855080504491	-11.119457753484733	6.660696998872631	-11.20390986159155
1734657961.6105902	0.9495534695886481	-0.2813977542482462	-0.13437147993084333	-11.626960699344307	7.735328539787948	-10.815853582854354
1734657961.6605902	0.9451564278099592	-0.3664706577443261	-0.0995782139049796	-5.371521122057104	9.992304224411422	-7.91420411780572
1734657961.7105901	0.9559308870526472	-0.32427087531346543	-0.10496536524384896	-1.2862326021992352	9.175252995536264	-8.605526895394243
1734657961.76059	0.970012151412273	-0.3010894259684759	-0.0983251586915515	-0.7139343066296621	10.192392721977328	-2.805692206401189
1734657961.8105903	0.9417646553975615	-0.30104545974650604	-0.0785166580386445	2.7001847255320097	7.637826440017951	-2.3776892448589138
1734657961.8605902	0.9829993784528587	-0.26146153142564177	-0.049461521384410935	7.000158921436464	7.624405349542083	-2.8323448792202885
1734657961.9105902	0.9539919696294084	-0.2870262163168294	-0.0549395369957495	0.7169296411901147	9.585767589702472	0.3579026946536468
1734657961.9605901	0.9385493779841122	-0.28402349016357736	-0.045502397656957495	3.3593286560519013	8.925167835987025	0.5981207869138093
1734657962.01059	0.9231070586484611	-0.2810206743712303	-0.03606535214913691	6.001679528055156	8.264579773329418	0.8383282498507169
1734657962.0605903	0.973221070531547	-0.2160077882998161	-0.028637508473876822	-3.3848004159106893	10.430500341358812	-3.2932035073785215
1734657962.1105902	0.9593159349335524	-0.2598946509214757	-0.025052517488067586	-5.397350050415055	10.89416998392812	-7.40896812037374
1734657962.1605902	0.955760017484464	-0.29164998907221	0.00464998907221	-5.462092197557948	13.407797246196925	-3.470602141846838
1734657962.2105901	0.9951656913218183	-0.23979399130985157	-0.015336776697692518	2.202350253800238	12.608405801579334	-5.068811760690475
1734657962.26059	0.9845373860942436	-0.20653464506354627	0.022193908218860383	-4.291912650192796	11.191276014081422	-4.577340792357641
1734657962.3105903	0.97094150370236	-0.23666050297954874	0.03596085005578368	-7.888218380270766	14.067987694070412	-4.371954273101157
1734657962.3605902	0.9524560350123706	-0.2675358575640121	0.024000011406908165	-6.721701190130628	16.4057614210056	-4.855763189076367
1734657962.4105902	0.951892740785307	-0.2711971848955046	0.024	-6.071115607029569	16.287475564914466	-4.737475564914467
1734657962.4605901	0.9513295022180538	-0.27485840026546754	0.024000330722540486	-5.420501803033248	16.169158046150446	-4.619183464977109
1734657962.51059	0.9579758919917137	-0.26043754348710707	0.08179816885535546	-0.2941237986450639	11.025351615716719	-3.917626208541242
1734657962.5605903	0.9906704558392364	-0.21745373946630442	0.07939441083079292	1.8347705183404168	15.506056195972597	-6.158023218128338
1734657962.6105902	0.9520549456805854	-0.2279850148143858	0.07500624382733921	2.4491258641725056	15.260349654330998	-4.622185339568738
1734657962.6605902	0.9418812583258176	-0.1808812583258177	0.0857958943893297	1.8520794479517455	7.621755268536063	-7.348831779180697
1734657962.7105901	0.9840577643220507	-0.2355603802336138	0.11034417680216158	-1.3081278656840172	7.336254261462603	-5.645937907103458
1734657962.76059	0.9963215521291384	-0.18813664242078526	0.15262999668466665	2.7135083034468885	11.915579825415803	-7.978303238127957
1734657962.8105903	0.9692166988777802	-0.2173558329079947	0.16886224219337434	7.138043370816094	15.388935224437759	-7.089016376417219
1734657962.8605902	0.9854749084239082	-0.17087706102858932	0.16424030124936775	4.889073312348428	11.031796366355103	-8.29635729077944
1734657962.9105902	0.974203642301968	-0.1847493633206548	0.151234971886886	1.1868886638002314	20.13551967917976	-10.117103935835951
1734657962.9605901	0.9363726242082911	-0.16955870882094737	0.24201516928090425	1.7321359174437985	9.776696973336785	-6.347708257248323
1734657963.01059	0.9825292186126205	-0.1990366912061501	0.20569119346282588	2.6940103058351754	23.40730299488785	-8.598662358524024
1734657963.0605903	0.9539909943338117	-0.17413836943874608	0.22369115649354776	10.15349985027854	11.271037498469743	-5.6545335980909055
1734657963.1105902	0.9888029900298853	-0.12980306551115747	0.22641872889517134	4.2410762377036395	14.577548656955473	-7.822064318628261
1734657963.1605902	0.9473422958726544	-0.1551409862421811	0.25	-0.7765631411034727	15.988641718931865	-9.99026192609464
1734657963.2105901	0.9499763975133323	-0.1639211126160819	0.25000011546787837	1.8663121570221886	12.976950795477268	-8.761005128494014
1734657963.26059	0.9492743066703795	-0.12445637549840693	0.270179569202519	-0.005751061928335823	7.712924064538628	-7.451948905849643
1734657963.3105903	0.9453720551877063	-0.1331132825278056	0.27958312137823293	5.014309040916601	11.05313067289346	-9.432070860491272
1734657963.3605902	0.979790251809798	-0.05818549840792085	0.32793004877046056	-0.26510768074114655	4.87404611979852	-9.46297985708339
1734657963.4105902	0.9378657351205176	-0.1499978734626558	0.3402685297589645	-4.92405984444463	13.686541613991611	-8.782405833744965
1734657963.4605901	0.9177579313616924	-0.1291482275592419	0.34112103431915386	2.721527597659233	12.92172750276845	-9.70490004744539
1734657963.51059	0.9297761685210965	-0.16434424356818414	0.335111951842612	3.1421776251503064	9.857091080103267	-11.447533894842822
1734657963.5605903	0.9539522491903173	-0.10409570548513176	0.34195236491838377	10.136619558899696	11.060000681133928	-9.426694676260308
1734657963.6105902	0.9460993497803658	-0.03846585231094293	0.34626710102446073	5.17475489681305	12.994023899122187	-12.380095369058987
1734657963.6605902	0.9325684067025016	-0.068	0.3835579058980541	-4.912527766747043	10.561158117961083	-11.333736116626476
1734657963.7105901	0.9270925632314613	-0.05431309592819186	0.3959073776827832	-1.4154233045572198	8.310320127384719	-8.9839276982464
1734657963.76059	0.918652056946406	-0.04993425625882674	0.3940219145803911	0.7441727377165118	8.377178006875791	-9.481963344792986
1734657963.8105903	0.9237996612668635	-0.07309847570088576	0.3863005080997048	-1.1175441581823011	8.197011855659778	-9.18168642609963
1734657963.8605902	0.9255784837906544	-0.048959683309066374	0.36019733557992295	3.817665497643022	5.43708543577166	-8.442377209039611
1734657963.9105902	0.910265294675804	-0.0492891175540326	0.343867352662098	0.0122603690036899	4.386426568265683	-7.933213284132841
1734657963.9605901	0.9132819054524167	-0.04263089421612062	0.37812746654550106	-3.7386526495145507	-1.3511406430504123	-5.758332814247644
1734657964.01059	0.9206569723234708	-0.044757226597347745	0.38049350825958295	-3.8280157830094987	-1.9234258017110661	-7.3884061412693
1734657964.0605903	0.9159064663394646	-0.02516752256783296	0.41498003082290785	-0.2507030648742896	-2.2824175720375734	-4.847261296764418
1734657964.1105902	0.9236350132905562	-0.0017299810295013374	0.4082700477217056	2.3626204416294883	-3.6433215327134447	-5.781890637569648
1734657964.1605902	0.9261848641991858	-0.0303113826382722	0.3924702469714994	-0.0088562907360554	-0.3752743243469665	-9.042940493942998
1734657964.2105901	0.9135956631177822	-0.03727004908605697	0.37047221685477083	1.454230957238293	-5.370306523305982	-0.8518598201853945
1734657964.26059	0.9188756226670123	-0.053593138932142605	0.384037955499313	-0.01575740692297979	-13.57766027509496	-0.7988036070287325
1734657964.3105903	0.9432624588373975	0.040229899943990864	0.35032820914404245	-16.539888679387552	-13.061345848871651	-7.726446698883506
1734657964.3605902	0.9334669358439532	0.0029251330156822505	0.3497003903515193	1.9871175620626964	-12.11585697061593	-3.8604900455775066
1734657964.4105902	0.9469632530096252	0.0079862198786094	0.3699448795144378	2.518553087253991	-13.296784638342205	-3.1519292169946787
1734657964.4605901	0.9255485010874279	-0.003870776381585524	0.38311019898665044	6.074642015049492	-8.255022537571335	-0.28046090064437484
1734657964.51059	0.9438348839612187	0.030038797638611402	0.47248523413703597	5.773320214170656	-6.487568746980309	-1.9559281853957546
1734657964.5605903	0.9647646801785239	-0.038072725827729734	0.3593857713930933	12.735803948410581	-0.8880872379037665	-3.1226761658430684
1734657964.6105902	0.9678581866603381	0.05950951287417043	0.37318754824693146	15.22298038132284	1.2911229347425255	-2.459308113161474
1734657964.6605902	0.9656777831912302	0.0256227608607389	0.3197878278522127	-0.963222168087698	10.963593260251724	-11.849870848558668
1734657964.7105901	0.9299171895568459	-0.03738542820170463	0.3385205468082462	-1.32081492567152	6.553080115028103	-8.69096165599651
1734657964.76059	1.074798440726546	-0.03182682787028531	0.43379799538576935	2.431162999646391	17.44344525104933	-11.570209949977693
1734657964.8105903	0.8766725343905107	-0.012530319668844353	0.32062483003111486	8.087566511840627	-10.814606935706585	-2.3870967168520707
1734657964.8605902	0.9392954960675657	0.1422682120703657	0.542696976571018	-0.3525305642633363	-4.843904112407064	-5.658383120760542
1734657964.9105902	0.8583233573728833	0.1595131834396688	0.4793398897008883	-2.487548948104247	-3.179169141326222	-6.123827889082311
1734657964.9605901	0.8657738325693121	0.1130572927289797	0.4451553636707256	3.003889161439826	-3.946129572447677	-4.436514533356854
1734657965.01059	0.873311764884515	0.06840769254128894	0.41183212660064566	8.494515931367188	-4.678248862045201	-2.754674182174346
1734657965.0605903	0.8836703430987365	0.08195352559065526	0.4062544306391419	13.96065797364092	-4.287810144739935	-1.2486962725683182
1734657965.1105902	0.8909693311762504	0.10055762896735995	0.39825838973851735	9.29538145879921	-7.967118508689322	-4.912874487957204
1734657965.1605902	0.9391360310512842	0.1106801552564208	0.3522040465769262	-7.087628045255595	-6.647875547113717	-3.749504996283756
