ts_receiver	acc_x	acc_y	acc_z	gyr_x	gyr_y	gyr_z
1734657973.347741	0.972	-0.029	-0.154	-3.57	3.22	2.87
1734657973.3977408	0.9904010592983743	-0.029836411786289742	-0.15065435285484102	2.5190778041893336	1.8148281990332307	2.87
1734657973.4477408	0.9880543094232042	-0.014805457414855162	-0.1529728452883979	3.1319467494781854	1.701854910146108	3.7255188107722854
1734657973.497741	0.9806630022830602	0.004083438609956969	-0.15666849885846984	2.4133474441864196	1.9030627156278024	4.789045782604099
1734657973.547741	0.9755369632054743	0.00735664650218725	-0.16146952957080365	1.6682868194488196	2.8187060066754133	5.892167674890637
1734657973.597741	0.9742825406446519	-0.01605924129983132	-0.16815978322852324	0.8780006061306929	4.955405768609607	7.062962064991566
1734657973.6477408	0.9730281180838295	-0.039475129101849915	-0.17485003688624282	0.08771439281256543	7.0921055305438045	8.233756455092497
1734657973.6977408	0.9754810233199811	-0.06646424874646531	-0.10056930040056632	7.595770737276073	5.1138309553487495	5.365472793355356
1734657973.747741	0.9705103240300881	-0.09637336633299563	-0.13817446445537435	1.9053684956458299	-1.8048967596991188	2.889174077592949
1734657973.797741	0.9724367708273186	-0.09940063987150079	-0.1307438839517708	2.9071208302057143	-1.7856322917268133	2.7350583338145054
1734657973.847741	0.9743632176245492	-0.10242791341000593	-0.12331330344816727	3.9088731647655988	-1.7663678237545077	2.5809425900360616
1734657973.8977408	0.97618993538957	-0.10462012922086004	-0.11649350562781341	4.573863318221425	-1.882954772698982	2.383522613650509
1734657973.9477408	0.9774531227035992	-0.10209375459280169	-0.11312500612373559	3.3359397504728303	-2.767185892519407	1.9414070537402965
1734657973.997741	0.9787163100176283	-0.09956737996474335	-0.10975650661965779	2.0980161827242387	-3.6514170123398295	1.4992914938300852
1734657974.047741	0.979	-0.09313014616968839	-0.12041360467005037	0.9982204637563732	-3.872827209340101	1.6282720934010075
1734657974.097741	0.979	-0.08556021753996154	-0.13513291033896366	-0.061569544405384535	-3.9022658206779273	1.9226582067792735
1734657974.1477408	0.9793307963611694	-0.07802283274947532	-0.14664637088935525	-0.769467235845576	-3.155860405698664	2.2157787264092934
1734657974.1977408	0.9794566456844296	-0.07216300629467111	-0.15020693075861774	-0.7654677520582793	-1.632820881253956	2.4271791187460443
1734657974.247741	0.9766798509616785	-0.07299604471149644	-0.14104350817353906	-0.02684035580648292	-1.7494462596095026	2.3105537403904974
1734657974.297741	0.9739030562389274	-0.07382908312832177	-0.13188008558846037	0.7117870404453152	-1.8660716379650497	2.19392836203495
1734657974.347741	0.9711262615161762	-0.07466212154514712	-0.12271666300338169	1.4504144366971117	-1.9826970163205964	2.0773029836794032
1734657974.3977408	0.976639484379957	-0.07475965625330468	-0.1376051562004298	-0.3244631282385872	-4.97871280949274	2.5007729651644217
1734657974.4477408	0.9760118238248304	-0.07434121588322029	-0.1438817617516955	0.08560843444410593	-5.359493546269527	2.9547807667059747
1734657974.497741	0.9753841632697039	-0.07392277551313592	-0.15015836730296123	0.4956799971267991	-5.740274283046313	3.4087885682475276
1734657974.547741	0.9747565027145773	-0.07350433514305153	-0.15643497285422692	0.9057515598094921	-6.1210550198231	3.8627963697890806
1734657974.597741	0.9741288421594507	-0.07308589477296716	-0.1627115784054926	1.3158231224921835	-6.501835756599885	4.316804171330632
1734657974.6477408	0.972013158490791	-0.0922061345890207	-0.17459648804911487	3.8570606663885108	-4.957412767479285	7.701534100256308
1734657974.6977408	0.9714498107372016	-0.10339441328532521	-0.18017992429488067	5.0911079490375295	-4.035539745187647	9.433527477727
1734657974.747741	0.9722061233439505	-0.1057389823662466	-0.1804824493375802	5.059342819554079	-3.8767140977703916	9.523528677930113
1734657974.797741	0.9729624359506993	-0.10808355144716798	-0.18078497438027974	5.027577690070627	-3.717888450353136	9.613529878133223
1734657974.847741	0.9737187485574481	-0.11042812052808937	-0.18108749942297928	4.995812560587177	-3.5590628029358813	9.703531078336335
1734657974.8977408	0.974475061164197	-0.11277268960901075	-0.1813900244656788	4.964047431103726	-3.400237155518626	9.793532278539447
1734657974.9477408	0.9752313737709458	-0.11511725868993214	-0.18169254950837835	4.932282301620274	-3.2414115081013706	9.883533478742557
1734657974.997741	0.9759876863776946	-0.11746182777085354	-0.18199507455107788	4.900517172136824	-3.082585860684115	9.973534678945668
1734657975.047741	0.9767439989844435	-0.11980639685177492	-0.1822975995937774	4.868752042653372	-2.92376021326686	10.06353587914878
1734657975.097741	0.9775003115911923	-0.12215096593269631	-0.18260012463647693	4.8369869131699215	-2.764934565849605	10.15353707935189
1734657975.1477408	0.9782566241979411	-0.1244955350136177	-0.18290264967917647	4.805221783686471	-2.6061089184323496	10.243538279555002
1734657975.1977408	0.97901293680469	-0.12684010409453908	-0.183205174721876	4.773456654203019	-2.4472832710150945	10.333539479758114
1734657975.247741	0.9797692494114388	-0.12918467317546048	-0.18350769976457554	4.741691524719569	-2.288457623597839	10.423540679961224
1734657975.297741	0.9805255620181876	-0.13152924225638185	-0.18381022480727507	4.709926395236117	-2.1296319761805833	10.513541880164336
1734657975.347741	0.9806874158483684	-0.13841812529494732	-0.1782692905534211	2.8374179279968645	-1.4756841044400066	10.438714656314739
1734657975.3977408	0.9798487048980582	-0.15295578176699104	-0.16289292313106718	-2.133342304175014	0.01162998077677635	10.086456057184447
1734657975.4477408	0.979009993947748	-0.16749343823903465	-0.14751655570871336	-7.10410253634685	1.4989440659935456	9.734197458054162
1734657975.497741	0.9781712829974377	-0.18203109471107826	-0.13214018828635954	-12.074862768518685	2.9862581512103152	9.381938858923874
1734657975.547741	0.9636164195301206	-0.16996262041785332	-0.14207598224534496	-14.417212197902511	0.681341542053683	7.479362485651707
1734657975.597741	0.9476286924981228	-0.1623219733654568	-0.1853829902966204	-7.626069918992568	-11.090080503291507	4.312531780757219
1734657975.6477408	0.9331609317579381	-0.16287842570161776	-0.2482621042828073	5.325358205153448	-29.046797391205228	0.5147445864587636
1734657975.6977408	0.9186931710177537	-0.1634348780377787	-0.3111412182689936	18.276786329299348	-47.0035142791188	-3.2830426078396577
1734657975.747741	0.9042254102775691	-0.16399133037393965	-0.3740203322551805	31.22821445344536	-64.96023116703252	-7.080829802138114
1734657975.797741	0.5927854032739072	-0.17519566074623896	-0.684648916429188	6.645968238451665	-34.329352889522006	-4.321775134203712
1734657975.847741	0.4852674963743809	-0.15672372982809946	-0.7942470924743796	-12.566364016181709	-26.117627017190053	-3.088783921132238
1734657975.8977408	0.44558267912923444	-0.12411524969529647	-0.8189699348620966	-15.021489058930822	-27.50789544034676	-3.636141640635727
1734657975.9477408	0.39751609528032533	-0.09768590476635004	-0.8478672571121847	-10.866564003827381	-29.089933331777488	-9.536905326456495
1734657975.997741	0.33161792948178	-0.08742689422266992	-0.8929578441482787	-4.328383111209044	-30.92976519117379	-19.4735592178287
1734657976.047741	0.31841074698301985	-0.06761612047452978	-0.8871797018050712	0.005223646196612641	-28.15625686643417	-17.22008370397776
1734657976.097741	0.3131200105672703	-0.0791999735818243	-0.8682933738412028	-3.3898590230078294	-24.54014097699217	-14.644938757865411
1734657976.1477408	0.3075563459285238	-0.09533096221442844	-0.8614607691020136	-1.7559902606881193	-18.708670899231954	-13.181269185704771
1734657976.1977408	0.30784627449696295	-0.08829424843235804	-0.8495636601778025	2.074077113246786	-9.012660161430258	-9.58179217079519
1734657976.247741	0.31768520198799033	-0.06971724810166183	-0.8399566444842899	6.072582341544447	0.6301317464711154	-5.326795557106569
1734657976.297741	0.3349303417209193	-0.06382866380261293	-0.8450040024549031	9.458518313497567	6.047629301596109	-3.1774622879537184
1734657976.347741	0.35199830771243795	-0.05807784522785217	-0.850018615163182	12.833928946126731	11.415567626078992	-1.0436031530156265
1734657976.3977408	0.3518320010467758	-0.0657279518483127	-0.8518479884854661	15.185505198590038	11.962716556107583	-0.41496395681256426
1734657976.4477408	0.3516656943811136	-0.07337805846877318	-0.8536773618077501	17.53708145105332	12.509865486136169	0.21367523939049216
1734657976.497741	0.3514993877154514	-0.08102816508923373	-0.8555067351300342	19.88865770351663	13.05701441616476	0.8423144355935541
1734657976.547741	0.3513330810497892	-0.0886782717096942	-0.8573361084523181	22.240233955979914	13.604163346193346	1.4709536317966105
1734657976.597741	0.3511667743841271	-0.09632837833015467	-0.8591654817746022	24.5918102084432	14.151312276221931	2.0995928279996674
1734657976.6477408	0.3510004677184649	-0.10397848495061521	-0.8609948550968862	26.943386460906503	14.698461206250522	2.728232024202729
1734657976.6977408	0.3552327608717257	-0.0746552174345141	-0.831327608717257	17.92330139618087	27.504581098601548	8.32366576275999
1734657976.747741	0.3554709551785334	-0.07941910357066803	-0.833709551785334	16.0641948315468	28.788448412295033	8.532085781216725
1734657976.797741	0.3557091494853411	-0.08418298970682192	-0.8360914948534109	14.20508826691275	30.072315725988506	8.740505799673457
1734657976.847741	0.35594734379214876	-0.0889468758429758	-0.8384734379214879	12.345981702278696	31.356183039681977	8.94892581813019
1734657976.8977408	0.3561855380989565	-0.09371076197912973	-0.8408553809895648	10.486875137644626	32.64005035337546	9.157345836586924
1734657976.9477408	0.35642373240576414	-0.0984746481152836	-0.8432373240576417	8.627768573010574	33.923917667068935	9.365765855043657
1734657976.997741	0.35666192671257185	-0.10323853425143753	-0.8456192671257188	6.768662008376504	35.20778498076241	9.574185873500392
1734657977.047741	0.35690012101937957	-0.10800242038759142	-0.8480012101937957	4.909555443742452	36.49165229445589	9.782605891957123
1734657977.097741	0.365080237902788	-0.11293826832828655	-0.8480205772239044	3.6843626368765405	37.88699492908358	10.33277726170513
1734657977.1477408	0.37899530226441963	-0.11799829173251622	-0.8463339027558279	2.9169257539017064	39.36283508865056	11.129730947871305
1734657977.1977408	0.4042020698668921	-0.12061443220810808	-0.8404969046763513	1.7159378092263418	41.875732717875024	11.796371154537162
1734657977.247741	0.4720784221321701	-0.11400539747468377	-0.8189371352948596	-1.1182886830267331	48.301311268849645	11.9678441851116
1734657977.297741	0.522744821184565	-0.11749255854306723	-0.7783219652042758	-0.012653497227508526	49.14848628134516	10.575031028974914
1734657977.347741	0.5734112202369599	-0.12097971961145068	-0.737706795113692	1.092981688571716	49.99566129384066	9.182217872838228
1734657977.3977408	0.6240776192893548	-0.12446688067983414	-0.6970916250231083	2.198616874370941	50.842836306336174	7.789404716701542
1734657977.4477408	0.6747440183417506	-0.12795404174821767	-0.6564764549325237	3.3042520601701852	51.6900113188317	6.396591560564831
1734657977.497741	0.7206162516941539	-0.13091493412136032	-0.6184905565801294	4.22980637234275	52.47465958628583	5.145760983847528
1734657977.547741	0.733390716798392	-0.13024259385271622	-0.5986565186551284	3.9121255954084106	52.82763822732399	4.875144025718276
1734657977.597741	0.7461651819026299	-0.12957025358407212	-0.5788224807301272	3.594444818474071	53.180616868362144	4.604527067589023
1734657977.6477408	0.758939647006868	-0.12889791331542802	-0.558988442805126	3.276764041539731	53.5335955094003	4.3339101094597705
1734657977.6977408	0.7717141121111062	-0.1282255730467839	-0.5391544048801247	2.9590832646053857	53.88657415043846	4.063293151330514
1734657977.747741	0.7844885772153443	-0.1275532327781398	-0.5193203669551235	2.641402487671046	54.23955279147662	3.7926761932012614
1734657977.797741	0.7980757224747422	-0.12696294310271394	-0.49733029471523416	1.3968805150010626	53.73105329451274	3.8268042981923345
1734657977.847741	0.8154376202545282	-0.12675376361139123	-0.46532583254285775	-4.152651389790746	49.221143461594856	5.276418173058796
1734657977.8977408	0.8327995180343141	-0.1265445841200685	-0.4333213703704813	-9.702183294582554	44.71123362867697	6.726032047925258
1734657977.9477408	0.8501614158141003	-0.1263354046287458	-0.4013169081981043	-15.251715199374463	40.20132379575901	8.175645922791746
1734657977.997741	0.8675233135938862	-0.12612622513742305	-0.3693124460257279	-20.80124710416627	35.69141396284113	9.625259797658208
1734657978.047741	0.8795578638936034	-0.1264720799677586	-0.3478284321483104	-24.5068924556255	32.95347720112845	10.331467451510179
1734657978.097741	0.8834862071510067	-0.12766248701545657	-0.3423525597288997	-25.40684018368517	32.911812954459016	9.906492135482003
1734657978.1477408	0.8874145504084101	-0.12885289406315456	-0.336876687309489	-26.306787911744852	32.87014870778959	9.48151681945382
1734657978.1977408	0.8913428936658134	-0.13004330111085255	-0.33140081489007833	-27.206735639804517	32.82848446112016	9.056541503425644
1734657978.247741	0.8952712369232166	-0.1312337081585505	-0.32592494247066767	-28.106683367864182	32.78682021445073	8.63156618739747
1734657978.297741	0.89919958018062	-0.13242411520624847	-0.320449070051257	-29.00663109592385	32.7451559677813	8.206590871369293
1734657978.347741	0.9031279234380233	-0.13361452225394646	-0.31497319763184634	-29.906578823983516	32.703491721111874	7.7816155553411175
1734657978.3977408	0.9070562666954267	-0.13480492930164445	-0.30949732521243556	-30.8065265520432	32.66182747444244	7.356640239312934
1734657978.4477408	0.91098460995283	-0.1359953363493424	-0.3040214527930249	-31.706474280102864	32.62016322777301	6.9316649232847585
1734657978.497741	0.9144767532506646	-0.144774662965963	-0.30085436610654154	-29.16038094951264	32.1680220774136	6.53596796492468
1734657978.547741	0.9179671809292232	-0.15358383758327776	-0.2976963601116551	-26.600733985236275	31.714266479200976	6.140386161354697
1734657978.597741	0.921457608607782	-0.16239301220059252	-0.2945383541167687	-24.04108702095991	31.260510880988345	5.744804357784713
1734657978.6477408	0.9249480362863407	-0.17120218681790744	-0.29138034812188224	-21.481440056683503	30.80675528277571	5.349222554214723
1734657978.6977408	0.9284384639648994	-0.1800113614352222	-0.2882223421269958	-18.921793092407135	30.352999684563084	4.953640750644739
1734657978.747741	0.931928891643458	-0.18882053605253696	-0.28506433613210935	-16.362146128130775	29.899244086350457	4.5580589470747555
1734657978.797741	0.9311739299313628	-0.27573735720690506	-0.2569136176663355	0.40139748853037105	0.11017402562927003	-1.4059651948741463
1734657978.847741	0.9452902945010891	-0.24149147601925408	-0.18951850040229118	3.757157109173636	-3.7638831778406447	-2.729789810354156
1734657978.8977408	0.9632940790327446	-0.17533803518200836	-0.11206035764981992	3.551997704045469	-0.7451090738119008	-2.817715269694799
1734657978.9477408	0.9742528119577162	-0.13536797010570956	-0.06776968370401326	3.2146884826783864	0.8641832110786074	-2.7697179234392486
1734657978.997741	0.9748764975026134	-0.13380875624346658	-0.07213548251829363	2.6835162936076085	0.40577433557916887	-2.5223226572966944
1734657979.047741	0.9755001830475105	-0.13224954238122358	-0.076501281332574	2.1523441045368306	-0.052634539920269674	-2.27492739115414
1734657979.097741	0.9761238685924077	-0.1306903285189806	-0.08086708014685437	1.6211719154660527	-0.5110434154197081	-2.0275321250115863
1734657979.1477408	0.976747554137305	-0.12913111465673757	-0.08523287896113481	1.0899997263952654	-0.9694522909191547	-1.7801368588690276
1734657979.1977408	0.9773712396822022	-0.1275719007944946	-0.08959867777541518	0.5588275373244871	-1.4278611664185934	-1.5327415927264736
1734657979.247741	0.9779949252270993	-0.1260126869322516	-0.09396447658969553	0.02765534825370919	-1.886270041918032	-1.2853463265839193
1734657979.297741	0.9786186107719965	-0.1244534730700086	-0.0983302754039759	-0.5035168408170687	-2.34467891741747	-1.0379510604413653
1734657979.347741	0.9792422963168937	-0.12289425920776562	-0.10269607421825627	-1.0346890298878466	-2.8030877929169087	-0.7905557942988111
1734657979.3977408	0.979865981861791	-0.1213350453455226	-0.10706187303253673	-1.5658612189586338	-3.261496668416356	-0.5431605281562528
1734657979.4477408	0.9740588453365763	-0.12496076977561581	-0.10888017106124796	0.846090945781637	-4.345791588597712	0.049104775014373825
1734657979.497741	0.9664916431234714	-0.13000557125101905	-0.11000123805578202	4.063553220094374	-5.601386622475854	0.7357583091664823
1734657979.547741	0.9589244409103665	-0.1350503727264223	-0.11112230505031606	7.281015494407111	-6.8569816563539945	1.4224118433185908
1734657979.597741	0.9503618547620702	-0.1416381452379297	-0.13380866730021865	10.366321844408905	-14.057228944054268	1.6399050444645327
1734657979.6477408	0.9382095241406483	-0.15379047585935163	-0.23426793377064015	12.975022151140816	-42.69622144187201	0.16542226239866875
1734657979.6977408	0.9271271317263208	-0.1749093620647677	-0.2811642220598982	13.898193206720244	-57.065452666179844	-4.543697102507964
1734657979.747741	0.8964132236010705	-0.15107803235453388	-0.3737659029363984	-0.6355696266121669	-69.32000561220093	-3.7381453285295887
1734657979.797741	0.7422942855571003	-0.1340691108858133	-0.5708486415328643	-3.7415930021455432	-61.99123425207672	-4.340329372283664
1734657979.847741	0.38530199214844796	-0.14036239057813757	-0.8557673307161493	-5.040239813708517	-57.26696654556095	-8.22468764477823
1734657979.8977408	0.3593429115113785	-0.10834629204480618	-0.8561545530885507	-10.498698494630336	-54.82235685890815	-9.041646946888338
1734657979.9477408	0.3318767831004142	-0.0711862359593839	-0.8908911272553586	-14.23086064929666	-52.843179958706315	-9.098194858322676
1734657979.997741	0.29565747749060733	-0.06424656610312213	-0.9191233312281386	-12.681504169905416	-53.35534338968778	-8.23698491546832
1734657980.047741	0.25304175611619867	-0.07025548457965688	-0.9190636944348263	-5.625166501498423	-52.60274595536875	-8.696397717096703
1734657980.097741	0.22343500058204957	-0.061471250630553725	-0.9323837491754298	-0.5509000814869427	-53.26313119397773	-9.839549959256528
1734657980.1477408	0.205136989830014	-0.040594092416859774	-0.9478399436215841	-2.0716851314080085	-55.194419168661405	-10.234787596748502
1734657980.1977408	0.19097663137748658	-0.02426359494822316	-0.9427984273925352	-9.476599795731193	-56.826975308440744	-9.150462962661107
1734657980.247741	0.18547385569907202	-0.025680976562360243	-0.9417145473346656	-9.996028469617901	-56.756939981624555	-9.045409972436829
1734657980.297741	0.17997108002065745	-0.027098358176497323	-0.9406306672767961	-10.515457143504609	-56.68690465480837	-8.94035698221255
1734657980.347741	0.1744683043422429	-0.028515739790634407	-0.9395467872189266	-11.034885817391315	-56.616869327992184	-8.835303991988273
1734657980.3977408	0.16896552866382825	-0.029933121404771515	-0.9384629071610571	-11.554314491278031	-56.546834001175995	-8.730251001763994
1734657980.4477408	0.16346275298541368	-0.0313505030189086	-0.9373790271031875	-12.073743165164739	-56.47679867435981	-8.625198011539716
1734657980.497741	0.15795997730699912	-0.03276788463304568	-0.936295147045318	-12.593171839051447	-56.406763347543624	-8.520145021315438
1734657980.547741	0.15245720162858456	-0.034185266247182766	-0.9352112669874485	-13.112600512938153	-56.33672802072744	-8.41509203109116
1734657980.597741	0.14695442595017003	-0.03560264786131984	-0.934127386929579	-13.632029186824859	-56.26669269391125	-8.310039040866883
1734657980.6477408	0.14145165027175538	-0.037020029475456954	-0.9330435068717094	-14.151457860711577	-56.19665736709507	-8.204986050642603
1734657980.6977408	0.13594887459334082	-0.03843741108959403	-0.9319596268138399	-14.670886534598285	-56.12662204027888	-8.099933060418325
1734657980.747741	0.13044609891492626	-0.039854792703731115	-0.9308757467559704	-15.190315208484991	-56.0565867134627	-7.994880070194046
1734657980.797741	0.12267688158576856	-0.04205557879040293	-0.9289053256988414	-15.558002970694966	-55.47729302119677	-7.948313600540551
1734657980.847741	0.10537132910446168	-0.0475526366374063	-0.9232046731167639	-15.287221973046282	-52.755231413254734	-8.147836440913265
1734657980.8977408	0.08806577662315448	-0.05304969448440976	-0.9175040205346863	-15.016440975397593	-50.03316980531265	-8.347359281285984
1734657980.9477408	0.0707602241418476	-0.05854675233141313	-0.9118033679526086	-14.74565997774891	-47.311108197370615	-8.5468821216587
1734657980.997741	0.0534546716605407	-0.06404381017841648	-0.9061027153705311	-14.474878980100225	-44.58904658942858	-8.746404962031413
1734657981.047741	0.02007379856816987	-0.042681879749143795	-0.9231845495976552	-11.495006772405816	-37.29511037571244	-7.606009615849436
1734657981.097741	-0.04632656609542518	0.03048665893041732	-0.9864332946520866	-5.39634763219283	-24.02396750775275	-4.362859626679763
1734657981.1477408	-0.07871937534407214	0.03297841348800555	-0.9988920674400278	-15.10588455826162	-34.489336649623304	-6.630356274085049
1734657981.1977408	-0.11194679582417182	0.014055592401101203	-1.0088840387472515	-9.136026267308427	-40.345689269230064	-8.495020566153622
1734657981.247741	-0.1641271839989567	0.027512041551833948	-0.9308487328973754	-10.904607271570942	1.6545364312392792	1.341073506629142
1734657981.297741	-0.004378727637309173	-0.03431189334837226	-0.9622660799887208	4.5961679904126855	41.48999093743144	8.267709332017427
1734657981.347741	0.014603812555432708	-0.035075838021067465	-0.9935288007095386	2.1789648511062243	36.15298395033229	9.475093248447884
1734657981.3977408	0.02018520048349799	-0.06195722965346618	-1.028595382755777	-16.588564283598295	31.627425518119054	8.097455408531566
1734657981.4477408	0.06606435196192206	-0.02057745541023903	-0.9501602378121579	24.094289655162342	26.092041379308906	3.3966929845408966
1734657981.497741	0.1377201114968334	-0.03342719327559321	-0.8966623234273088	11.13630783505053	38.565676383980076	10.710515236459031
1734657981.547741	0.15583616681684687	-0.04165756482315816	-0.8917121758842093	0.5233711517246658	42.44500427911642	13.46500427911642
1734657981.597741	0.1749098411298317	-0.0645922219772055	-0.8967031867404895	0.26689228733707226	44.198446143668534	14.401650426031106
1734657981.6477408	0.1965743332399624	-0.1025050831699342	-0.9079520576438267	3.4165761402714567	45.77328807013573	14.605796601684261
1734657981.6977408	0.25872116569180575	-0.08476035867440178	-0.9339193723197969	5.7044119818274	47.78569985705584	12.506562053299483
1734657981.747741	0.2912873233604226	-0.09478071488013004	-0.9163837489597725	2.3141914655560054	46.85046661118786	9.583958159962073
1734657981.797741	0.3035147262017893	-0.060455821394631945	-0.8888581453814965	-6.050602865288333	45.045217438722645	9.577573631008947
1734657981.847741	0.30829139057123806	-0.06347492832565971	-0.9095146623243261	-12.99562878528564	43.37682128010668	10.025364208535231
1734657981.8977408	0.3111959700125245	-0.07675300577154058	-0.943124795859212	-19.530932528180127	41.75025679298628	10.577234302379654
1734657981.9477408	0.3163982838709228	-0.08417018649663514	-0.959811417554444	-21.656534537159875	40.28083652813811	10.507859293328785
1734657981.997741	0.3253670634500312	-0.08198013566917844	-0.9487568752825197	-16.553716109185753	39.06900840361207	9.42013404902529
1734657982.047741	0.3343358430291396	-0.07979008484172173	-0.9377023330105954	-11.450897681211634	37.85718027908602	8.332408804721794
1734657982.097741	0.3433046226082477	-0.07760003401426512	-0.9266477907386714	-6.348079253237696	36.64535215456003	7.244683560418336
1734657982.1477408	0.3522734021873561	-0.0754099831868084	-0.9155932484667472	-1.2452608252635748	35.433524030033986	6.15695831611484
1734657982.1977408	0.36124218176646417	-0.07321993235935179	-0.9045387061948232	3.857557602710365	34.221695905507985	5.069233071811382
1734657982.247741	0.3702109613455726	-0.07102988153189507	-0.8934841639228989	8.960376030684483	33.00986778098194	3.981507827507886
1734657982.297741	0.379179740924681	-0.06883983070443837	-0.8824296216509746	14.063194458658604	31.7980396564559	2.8937825832043895
1734657982.347741	0.38814852050378906	-0.06664977987698174	-0.8713750793790507	19.166012886632547	30.586211531929898	1.8060573389009331
1734657982.3977408	0.3971173000828975	-0.06445972904952504	-0.8603205371071264	24.26883131460667	29.374383407403855	0.7183320945974359
1734657982.4477408	0.40196800899618856	-0.06498933633206284	-0.8586595575547086	15.759926517858117	30.505070864887983	1.8981553793027826
1734657982.497741	0.40572458805616646	-0.0662415293520555	-0.8594943529013703	3.6345241075959187	32.2581410928777	3.6804434444256593
1734657982.547741	0.4082552815777838	-0.06736468796826264	-0.8595441400396717	-3.8721038018927407	33.36977990766785	4.779146118333788
1734657982.597741	0.4089027341299288	-0.06828962018561255	-0.8583879747679843	-4.283236172504777	33.496033155336114	4.827705059744659
1734657982.6477408	0.4095501866820737	-0.0692145524029625	-0.8572318094962968	-4.694368543116828	33.62228640300438	4.876264001155531
1734657982.6977408	0.41019763923421865	-0.07013948462031241	-0.8560756442246095	-5.105500913728864	33.74853965067264	4.924822942566401
1734657982.747741	0.41084509178636364	-0.07106441683766235	-0.8549194789529221	-5.516633284340915	33.874792898340914	4.973381883977273
1734657982.797741	0.41149254433850857	-0.0719893490550123	-0.8537633136812346	-5.927765654952966	34.00104614600918	5.021940825388145
1734657982.847741	0.4121399968906535	-0.07291428127236221	-0.8526071484095472	-6.338898025565003	34.12729939367744	5.070499766799016
1734657982.8977408	0.4127874494427985	-0.07383921348971216	-0.8514509831378598	-6.750030396177053	34.253552641345706	5.119058708209888
1734657982.9477408	0.4134349019949434	-0.07476414570706211	-0.8502948178661723	-7.161162766789104	34.37980588901397	5.16761764962076
1734657982.997741	0.4140823545470884	-0.07568907792441201	-0.849138652594485	-7.57229513740114	34.50605913668224	5.216176591031631
1734657983.047741	0.41472980709923335	-0.07661401014176196	-0.8479824873227976	-7.983427508013191	34.632312384350506	5.2647355324425025
1734657983.097741	0.4153772596513783	-0.07753894235911188	-0.8468263220511101	-8.394559878625227	34.75856563201877	5.313294473853373
1734657983.1477408	0.4160247122035233	-0.07846387457646181	-0.8456701567794227	-8.805692249237278	34.88481887968704	5.361853415264245
1734657983.1977408	0.4166721647556682	-0.07938880679381176	-0.8445139915077353	-9.21682461984933	35.011072127355305	5.410412356675117
1734657983.247741	0.41731961730781314	-0.08031373901116168	-0.8433578262360478	-9.627956990461366	35.137325375023565	5.458971298085988
1734657983.297741	0.41796706985995813	-0.08123867122851162	-0.8422016609643604	-10.039089361073415	35.26357862269184	5.50753023949686
1734657983.347741	0.41861452241210306	-0.08216360344586153	-0.8410454956926731	-10.450221731685453	35.3898318703601	5.556089180907731
1734657983.3977408	0.419261974964248	-0.08308853566321148	-0.8398893304209856	-10.861354102297504	35.516085118028364	5.604648122318602
1734657983.4477408	0.419909427516393	-0.08401346788056142	-0.8387331651492982	-11.272486472909556	35.64233836569663	5.653207063729475
1734657983.497741	0.4205568800685379	-0.08493840009791134	-0.8375769998776108	-11.683618843521591	35.7685916133649	5.701766005140345
1734657983.547741	0.4212043326206829	-0.08586333231526128	-0.8364208346059233	-12.094751214133641	35.894844861033164	5.750324946551217
1734657983.597741	0.42185178517282784	-0.0867882645326112	-0.8352646693342359	-12.505883584745678	36.02109810870142	5.798883887962088
1734657983.6477408	0.4237555656480304	-0.08846297137335866	-0.8344733303055909	-11.666039075247825	36.11963743737187	5.66662880541085
1734657983.6977408	0.42603232760414506	-0.09036027300345421	-0.8337903017187565	-10.45480171459483	36.20994899496442	5.480693245661486
1734657983.747741	0.42830908956025965	-0.0922575746335497	-0.8331072731319221	-9.243564353941878	36.30026055255696	5.2947576859121295
1734657983.797741	0.4305858515163743	-0.09415487626364523	-0.8324242445450877	-8.03232699328888	36.39057211014951	5.108822126162766
1734657983.847741	0.43286261347248883	-0.09605217789374071	-0.8317412159582533	-6.821089632635927	36.480883667742056	4.92288656641341
1734657983.8977408	0.43513937542860354	-0.09794947952383626	-0.8310581873714189	-5.609852271982931	36.571195225334606	4.736951006664047
1734657983.9477408	0.4374161373847182	-0.09984678115393181	-0.8303751587845845	-4.398614911329934	36.661506782927155	4.551015446914683
1734657983.997741	0.4396928993408327	-0.10174408278402729	-0.8296921301977501	-3.187377550676983	36.7518183405197	4.365079887165326
1734657984.047741	0.4419696612969474	-0.10364138441412282	-0.8290091016109158	-1.976140190023985	36.84212989811225	4.179144327415963
1734657984.097741	0.44424642325306196	-0.10553868604421832	-0.8283260730240813	-0.7649028293710334	36.93244145570479	3.993208767666606
1734657984.1477408	0.4465231852091766	-0.10743598767431385	-0.827643044437247	0.44633453128196443	37.02275301329734	3.807273207917242
1734657984.1977408	0.4487999471652913	-0.1093332893044094	-0.8269600158504126	1.6575718919349605	37.11306457088989	3.6213376481678785
1734657984.247741	0.45107670912140585	-0.11123059093450488	-0.8262769872635782	2.868809252587912	37.20337612848243	3.4354020884185217
1734657984.297741	0.4567525072538642	-0.11016830449590652	-0.8243663256314842	3.335742410891735	37.673171234076165	3.266435013439549
1734657984.347741	0.46474700960523974	-0.10708709004798053	-0.8216182154481988	3.2949371384732555	38.40183681297758	3.1090432483968433
1734657984.3977408	0.4727415119566155	-0.10400587560005443	-0.8188701052649134	3.254131866054775	39.13050239187902	2.951651483354132
1734657984.4477408	0.48073601430799134	-0.10092466115212834	-0.816121995081628	3.2133265936362942	39.85916797078046	2.7942597183114204
1734657984.497741	0.4887305166593669	-0.09784344670420235	-0.8133738848983426	3.1725213212178147	40.587833549681875	2.6368679532687147
1734657984.547741	0.49672501901074273	-0.09476223225627625	-0.8106257747150571	3.1317160487993343	41.31649912858332	2.4794761882260037
1734657984.597741	0.5047195213621183	-0.09168101780835028	-0.8078776645317719	3.0909107763808548	42.04516470748474	2.3220844231832976
1734657984.6477408	0.5127140237134941	-0.08859980336042417	-0.8051295543484864	3.0501055039623743	42.77383028638618	2.164692658140586
1734657984.6977408	0.5207085260648698	-0.08551858891249808	-0.802381444165201	3.0093002315438935	43.50249586528762	2.0073008930978746
1734657984.747741	0.5287030284162454	-0.08243737446457208	-0.7996333339819157	2.9684949591254144	44.231161444189034	1.8499091280551692
1734657984.797741	0.5366975307676213	-0.079356160016646	-0.7968852237986302	2.9276896867069335	44.959827023090476	1.692517363012458
1734657984.847741	0.5446920331189968	-0.07627494556872	-0.7941371136153449	2.8868844142884544	45.68849260199189	1.535125597969752
1734657984.8977408	0.606121623538247	-0.09014092714021557	-0.7409835890182916	-0.9591893154609714	42.092432303905795	2.9059459932978644
1734657984.9477408	0.7052680951652628	-0.11596899958086677	-0.652251662730248	-7.491192152064371	35.44378655950591	5.355447057024139
1734657984.997741	0.787335308862058	-0.13694864196684392	-0.5756859252148893	-11.548133125355134	30.220538303009054	7.227767881088531
1734657985.047741	0.7945247890001887	-0.13667212349999275	-0.5524583739993904	-4.754074394821675	31.246421815026928	6.569653929982726
1734657985.097741	0.8017142691383191	-0.13639560503314158	-0.5292308227838921	2.0399843357115444	32.27230532704476	5.911539978876944
1734657985.1477408	0.8089037492764498	-0.1361190865662904	-0.5060032715683931	8.834043066245004	33.29818883906264	5.253426027771139
1734657985.1977408	0.8818306183027255	-0.14604413002984407	-0.337207087147227	8.177593622688947	17.568950651951045	2.3250457588077276
1734657985.247741	0.9428566161953985	-0.1611885955204217	-0.16561099827708528	6.59305951555695	-0.1151079517583874	-1.1238493969798424
1734657985.297741	0.8757026108715459	-0.17334572408800514	-0.25163938497372684	9.231673412860548	-12.470405920494823	-2.895501715400899
1734657985.347741	0.701605528626735	-0.18984781719177868	-0.659241084636933	-1.857733152875264	-72.94232609927292	-5.783368008561267
1734657985.3977408	0.6314906959070666	-0.15908726522635935	-0.7231545109108684	3.5374539137987977	-66.48197372706537	-7.68147367278257
1734657985.4477408	0.36280457725901405	-0.10635343294426056	-0.8578957496880584	-12.99195422740986	-54.14203782793415	-8.515259693901761
1734657985.497741	0.3486001276355117	-0.0960667517570078	-0.8748219953146459	-10.591850246384976	-52.374017868971634	-9.201106147507879
1734657985.547741	0.32715916932596734	-0.0845795846629837	-0.8914204153370163	-10.620642249688316	-51.9893487923801	-8.908456741127088
1734657985.597741	0.22986536060669616	-0.050683789021538264	-0.9378325941878731	-24.96625274520899	-56.52124908493034	-8.44916727671311
1734657985.6477408	0.22353771462093355	-0.048920346697637215	-0.9368990070752197	-24.443443962123034	-56.69551867929233	-8.332987547138453
1734657985.6977408	0.21721006863517095	-0.04715690437373616	-0.9359654199625662	-23.920635179037074	-56.86978827365431	-8.216807817563796
1734657985.747741	0.2108824226494086	-0.04539346204983517	-0.9350318328499128	-23.397826395951135	-57.04405786801629	-8.100628087989142
1734657985.797741	0.204554776663646	-0.043630019725934124	-0.9340982457372592	-22.875017612865175	-57.21832746237828	-7.984448358414483
1734657985.847741	0.1982271306778836	-0.04186657740203314	-0.9331646586246057	-22.352208829779237	-57.39259705674026	-7.8682686288398305
1734657985.8977408	0.19189948469212104	-0.04010313507813208	-0.9322310715119523	-21.829400046693276	-57.566866651102245	-7.752088899265173
1734657985.9477408	0.18557183870635843	-0.03833969275423103	-0.9312974843992988	-21.306591263607316	-57.741136245464226	-7.635909169690515
1734657985.997741	0.17924419272059605	-0.03657625043033005	-0.9303638972866454	-20.783782480521378	-57.91540583982621	-7.519729440115862
1734657986.047741	0.17291654673483348	-0.03481280810642899	-0.9294303101739919	-20.260973697435418	-58.089675434188194	-7.4035497105412045
1734657986.097741	0.16955018932925944	-0.03391003786585189	-0.9288650567987778	-20.126005381404525	-58.152157510060626	-7.340553975914448
1734657986.1477408	0.16871578303507448	-0.0337431566070149	-0.9286147349105224	-20.32264713140078	-58.11905939372462	-7.323031443736563
1734657986.1977408	0.16788137674088952	-0.033576275348177906	-0.9283644130222669	-20.51928888139704	-58.08596127738862	-7.30550891155868
1734657986.247741	0.16704697044670458	-0.03340939408934092	-0.9281140911340114	-20.715930631393288	-58.05286316105261	-7.287986379380796
1734657986.297741	0.16621256415251964	-0.033242512830503924	-0.927863769245756	-20.912572381389545	-58.019765044716614	-7.270463847202912
1734657986.347741	0.1653781578583347	-0.03307563157166694	-0.9276134473575004	-21.10921413138579	-57.98666692838061	-7.252941315025028
1734657986.3977408	0.16454375156414974	-0.03290875031282994	-0.9273631254692449	-21.305855881382048	-57.95356881204461	-7.235418782847144
1734657986.4477408	0.16370934526996478	-0.032741869053992956	-0.9271128035809895	-21.502497631378304	-57.9204706957086	-7.217896250669259
1734657986.497741	0.16287493897577984	-0.03257498779515597	-0.926862481692734	-21.699139381374554	-57.8873725793726	-7.200373718491376
1734657986.547741	0.16204053268159488	-0.032408106536318974	-0.9266121598044785	-21.89578113137081	-57.854274463036596	-7.182851186313492
1734657986.597741	0.16120612638740994	-0.03224122527748199	-0.9263618379162231	-22.09242288136706	-57.8211763467006	-7.1653286541356085
1734657986.6477408	0.16037172009322498	-0.03207434401864499	-0.9261115160279675	-22.289064631363317	-57.78807823036459	-7.147806121957724
1734657986.6977408	0.15953731379904001	-0.031907462759808006	-0.925861194139712	-22.48570638135957	-57.754980114028584	-7.13028358977984
1734657986.747741	0.15870290750485508	-0.03174058150097102	-0.9256108722514566	-22.68234813135582	-57.721881997692584	-7.112761057601956
1734657986.797741	0.15786850121067011	-0.031573700242134024	-0.9253605503632011	-22.878989881352076	-57.68878388135658	-7.095238525424072
1734657986.847741	0.1570340949164852	-0.03140681898329704	-0.9251102284749456	-23.075631631348326	-57.65568576502058	-7.077715993246189
1734657986.8977408	0.15619968862230024	-0.031239937724460046	-0.9248599065866902	-23.272273381344583	-57.62258764868457	-7.060193461068304
1734657986.9477408	0.15536528232811528	-0.031073056465623052	-0.9246095846984346	-23.468915131340836	-57.58948953234857	-7.04267092889042
1734657986.997741	0.15453087603393034	-0.030906175206786065	-0.9243592628101791	-23.665556881337086	-57.556391416012566	-7.025148396712536
1734657987.047741	0.15369646973974538	-0.030739293947949074	-0.9241089409219236	-23.862198631333342	-57.52329329967657	-7.007625864534653
1734657987.097741	0.15286206344556044	-0.030572412689112087	-0.9238586190336682	-24.058840381329592	-57.49019518334056	-6.990103332356769
1734657987.1477408	0.15202765715137548	-0.030405531430275093	-0.9236082971454127	-24.25548213132585	-57.45709706700456	-6.972580800178885
1734657987.1977408	0.15119325085719051	-0.030238650171438102	-0.9233579752571572	-24.452123881322105	-57.423998950668555	-6.955058268001
1734657987.247741	0.15035884456300558	-0.030071768912601115	-0.9231076533689017	-24.648765631318355	-57.390900834332555	-6.937535735823117
1734657987.297741	0.14952443826882061	-0.029904887653764124	-0.9228573314806462	-24.845407381314608	-57.35780271799655	-6.920013203645232
1734657987.347741	0.14869003197463568	-0.029738006394927137	-0.9226070095923907	-25.04204913131086	-57.32470460166055	-6.902490671467349
1734657987.3977408	0.14785562568045074	-0.029571125136090143	-0.9223566877041353	-25.238690881307114	-57.29160648532454	-6.884968139289465
1734657987.4477408	0.14702121938626578	-0.029404243877253152	-0.9221063658158798	-25.43533263130337	-57.25850836898854	-6.867445607111581
1734657987.497741	0.14618681309208084	-0.029237362618416165	-0.9218560439276243	-25.63197438129962	-57.22541025265254	-6.849923074933697
1734657987.547741	0.14535240679789588	-0.02907048135957917	-0.9216057220393687	-25.828616131295878	-57.19231213631653	-6.8324005427558125
1734657987.597741	0.14451800050371094	-0.028903600100742187	-0.9213554001511133	-26.025257881292127	-57.15921401998053	-6.814878010577929
1734657987.6477408	0.14368359420952598	-0.028736718841905193	-0.9211050782628578	-26.22189963128838	-57.126115903644525	-6.7973554784000445
1734657987.6977408	0.142849187915341	-0.0285698375830682	-0.9208547563746023	-26.418541381284637	-57.093017787308526	-6.779832946222161
1734657987.747741	0.14201478162115608	-0.02840295632423121	-0.9206044344863469	-26.615183131280887	-57.05991967097252	-6.762310414044277
1734657987.797741	0.1411803753269711	-0.02823607506539422	-0.9203541125980914	-26.811824881277143	-57.02682155463652	-6.744787881866393
1734657987.847741	0.14034596903278618	-0.028069193806557233	-0.920103790709836	-27.008466631273393	-56.99372343830051	-6.727265349688509
1734657987.8977408	0.13645470376734575	-0.027144238840393797	-0.9217115223192125	-27.05576955361575	-56.701877623127984	-6.672933136221658
1734657987.9477408	0.13039820946384978	-0.025682326422308565	-0.9246353471553829	-26.997293056892342	-56.22675608725028	-6.592527953226971
1734657987.997741	0.12434171516035403	-0.024220414004223385	-0.9275591719915532	-26.938816560168934	-55.7516345513726	-6.512122770232286
1734657988.047741	0.11828522085685807	-0.022758501586138152	-0.9304829968277237	-26.880340063445527	-55.2765130154949	-6.431717587237598
1734657988.097741	0.11222872655336232	-0.021296589168052972	-0.9334068216638941	-26.82186356672212	-54.801391479617216	-6.351312404242913
1734657988.1477408	0.10617223224986636	-0.019834676749967736	-0.9363306465000645	-26.76338706999871	-54.32626994373951	-6.270907221248225
1734657988.1977408	0.10011573794637038	-0.018372764331882507	-0.939254471336235	-26.704910573275303	-53.851148407861814	-6.190502038253538
1734657988.247741	0.09405924364287464	-0.016910851913797327	-0.9421782961724053	-26.646434076551895	-53.37602687198413	-6.110096855258853
1734657988.297741	0.08800274933937868	-0.015448939495712093	-0.9451021210085758	-26.587957579828483	-52.90090533610643	-6.029691672264165
1734657988.347741	0.08195097503309383	-0.013899498817842349	-0.9479681337715109	-26.510095863436096	-52.413012848967014	-5.9457103153957105
1734657988.3977408	0.07642637495801521	-0.0025740686639311883	-0.9443771437227099	-24.26710823295418	-50.49873892295227	-5.462307808826331
1734657988.4477408	0.0709017748829366	0.00875136148997997	-0.9407861536739088	-22.02412060247226	-48.584464996937534	-4.978905302256953
1734657988.497741	0.06537717480785818	0.02007679164389073	-0.9371951636251079	-19.781132971990424	-46.67019107092286	-4.495502795687591
1734657988.547741	0.048302273682019836	0.046894316795161664	-0.9431534085226073	-17.61096596478449	-45.8196136140862	-3.6749204911440936
1734657988.597741	-0.03062558475632333	0.08652068096491262	-0.9550689365497087	-15.14308715506842	-45.22586619580926	-5.006221090642704
1734657988.6477408	-0.2877881046131587	0.07900619174831679	-0.930020639161056	-10.993419221014939	-38.85524922662857	-17.279886811082577
1734657988.6977408	-0.5116982247385151	0.21975393916131286	-0.8018133768352329	12.996817132073742	30.471315036946613	14.320988836644862
1734657988.747741	-0.3263720859554733	0.1809225681952235	-0.8807415679334991	13.708392807615798	42.68739074115307	15.167020941978837
1734657988.797741	0.01905453819768578	0.2415976091870451	-0.925431378530894	-0.7090108278140808	52.07713407521004	12.967127388837028
1734657988.847741	0.10033833841991387	0.24319013760252958	-0.9108203465937568	-2.695208359649087	59.08817237599678	11.909640163476858
1734657988.8977408	0.08449996867444798	0.1946591426437147	-0.9358636278203041	1.0722551185154519	60.42909356701654	12.011366227841123
1734657988.9477408	0.1399626371141009	0.10290466022218843	-0.9510502466396574	32.23374511692409	55.71377714693473	7.427395274657275
1734657988.997741	0.11624724640958933	0.04238952532102107	-0.9829433582767592	9.22163841261531	51.763937936493676	12.121407089964041
1734657989.047741	0.1408197296850303	0.037427314910986824	-0.967743245235086	13.613970549825936	49.89168731054464	12.403702507988362
1734657989.097741	0.1791119657045324	0.0482490337860635	-0.9391628082060375	25.792566483854532	48.609729843804786	11.43252260894302
1734657989.1477408	0.21740420172403585	0.05907075266114056	-0.9105823711769878	37.97116241788357	47.32777237706489	10.461342709897643
1734657989.1977408	0.24810937629012006	0.06235938317076041	-0.8957577998138194	40.756963645929126	46.99734269640195	9.857421589023385
1734657989.247741	0.2430165232525195	0.03010464726595679	-0.9458375213502249	-0.7752528757035364	51.15650601044241	10.986337345691513
1734657989.297741	0.2434985851126758	0.028254952105634706	-0.9478281454131445	0.38133544183031753	50.524332279084845	10.57700533166688
1734657989.347741	0.24399879310015837	0.026504224149445685	-0.9496622413672473	1.6768741294101934	49.876562935294906	10.162666382035479
1734657989.3977408	0.24449900108764097	0.024753496193256598	-0.9514963373213502	2.9724128169901154	49.228793591504946	9.748327432404063
1734657989.4477408	0.24499920907512357	0.023002768237067518	-0.9533304332754531	4.267951504570037	48.58102424771498	9.333988482772646
1734657989.497741	0.24549941706260617	0.02125204028087843	-0.9551645292295559	5.56349019214996	47.93325490392502	8.919649533141229
1734657989.547741	0.2459996250500887	0.019501312324689473	-0.9569986251836586	6.859028879729789	47.28548556013511	8.505310583509843
1734657989.597741	0.2464998330375713	0.01775058436850039	-0.9588327211377614	8.15456756730971	46.63771621634515	8.090971633878425
1734657989.6477408	0.2470000410250539	0.015999856412311306	-0.9606668170918643	9.450106254889633	45.98994687255518	7.676632684247009
1734657989.6977408	0.2475002490125365	0.014249128456122223	-0.9625009130459672	10.745644942469555	45.34217752876522	7.262293734615593
1734657989.747741	0.2480004570000191	0.01249840049993314	-0.96433500900007	12.041183630049478	44.69440818497526	6.847954784984176
1734657989.797741	0.24850066498750167	0.010747672543744181	-0.9661691049541727	13.336722317629308	44.04663884118535	6.433615835352789
1734657989.847741	0.24902028027198678	0.009011588726849592	-0.9679804440234413	14.633802550997522	43.4006084081596	6.0188676848140705
1734657989.8977408	0.2606407209707935	0.01565184055473915	-0.9567750190638776	16.812635182023783	43.7492216291238	5.370059745797362
1734657989.9477408	0.27226116166960024	0.022292092382628706	-0.9455695941043141	18.991467813050043	44.097834850088006	4.7212518067806535
1734657989.997741	0.283881602368407	0.028932344210518268	-0.9343641691447504	21.170300444076304	44.44644807105221	4.072443867763944
1734657990.047741	0.2955020430672129	0.03557259603840735	-0.9231587441851876	23.34913307510241	44.795061292016385	3.4236359287472813
1734657990.097741	0.3071224837660196	0.042212847866296914	-0.911953319225624	25.527965706128672	45.14367451298059	2.7748279897305723
1734657990.1477408	0.3187429244648263	0.04885309969418647	-0.9007478942660603	27.706798337154936	45.49228773394479	2.126020050713864
1734657990.1977408	0.33036336516363307	0.055493351522076025	-0.8895424693064967	29.885630968181196	45.840900954908996	1.4772121116971544
1734657990.247741	0.33839160496848836	0.04772643945420006	-0.8900192987823535	24.733911276999017	45.044403353117495	1.8432807930000896
1734657990.297741	0.3453655786681706	0.03573120469074664	-0.8939247240541756	17.43076601869179	43.9118300242891	2.5072030892098374
1734657990.347741	0.35233955236785325	0.023735969927292364	-0.8978301493259978	10.127620760384048	42.77925669546063	3.171125385419632
1734657990.3977408	0.3693076972624807	0.011173075684379818	-0.8925192270531395	2.6499031669349344	38.26509457863634	4.182724566112041
1734657990.4477408	0.4293442547861889	-0.003836063696547218	-0.8474918089103584	-5.5801082602733905	19.178472332557458	6.692586207033728
