ts_receiver	acc_x	acc_y	acc_z	gyr_x	gyr_y	gyr_z
1734599366.2847486	-1.0	-0.022	0.193	3.08	-1.4	-0.07
1734599366.3347485	-1.0065880846004476	-0.005791334254870984	0.2103956671274355	0.9957439812072143	-0.9369384462216956	0.09769669892048444
1734599366.3847485	-1.0018428502665877	-0.0023402547393364913	0.20867012736966822	1.6902737337085307	-0.5141812055687203	-0.023091084123222805
1734599366.4347486	-1.0	-0.0032077497477830076	0.20562242334854136	1.9362242334854138	-0.552094015373983	-0.01056058371353441
1734599366.4847486	-1.0	-0.006817296127906455	0.20173521955456228	1.8973521955456227	-0.8825063378622061	0.08661951113594302
1734599366.5347486	-1.0	-0.010426842508029902	0.1978480157605832	1.8584801576058319	-1.2129186603504294	0.18379960598542044
1734599366.5847485	-0.9999972094300199	-0.013991628290059831	0.19400279056998007	1.8194139803041882	-1.5398046601013962	0.28
1734599366.6347485	-0.9997204026276921	-0.013161207883076412	0.19427959737230788	1.7612845518153488	-1.5204281839384497	0.28
1734599366.6847486	-0.9994435958253644	-0.01233078747609299	0.19455640417463568	1.7031551233265094	-1.501051707775503	0.28
1734599366.7347486	-0.9991667890230366	-0.01150036706910957	0.1948332109769635	1.64502569483767	-1.4816752316125565	0.28
1734599366.7847486	-0.9958192027031298	-0.009189046777645343	0.19119729625842052	2.881500883472388	-0.9932332744351741	-0.04353345112965175
1734599366.8347485	-0.9985989010888172	-0.009830515635880908	0.1952599323605791	2.207958582325046	-1.0381360945116636	0.046272189023327207
1734599366.8847485	-1.0013785994745048	-0.010471984494116472	0.19932256846273766	1.5344162811777038	-1.083038914588153	0.13607782917630615
1734599366.9347486	-1.0041582978601922	-0.011113453352352035	0.20338520456489623	0.8608739800303629	-1.1279417346646423	0.22588346932928488
1734599366.9847486	-1.0069379962458795	-0.011754922210587599	0.2074478406670548	0.18733167888302082	-1.172844554741132	0.31568910948226386
1734599367.0347486	-0.9993683411636176	-0.007947108781757216	0.21136796169080121	0.07378207456843422	-0.2542161185467677	0.029459703633080855
1734599367.0847485	-0.9982355124436024	-0.004265415441707706	0.20485419655071363	1.4614972565870958	-0.33351412894783405	-0.1687853223695851
1734599367.1347485	-0.9971026837235871	-0.0005837221016581958	0.19834043141062604	2.8492124386057576	-0.41281213934890043	-0.367030348372251
1734599367.1847486	-1.0094797101449278	-0.006628364389234116	0.20644254658385117	-1.1244855072464661	-0.9617898550724717	1.12496376811597
1734599367.2347486	-0.9983999483958002	-0.00619984518740045	0.20060082566719759	2.491768813184672	-0.20998193853005254	0.9800180614699475
1734599367.2847486	-0.9988260186750317	-0.0074780560250950825	0.1937837011994929	4.4005636641419885	-0.35910653626109285	0.8308934637389072
1734599367.3347485	-0.9987523423450396	-0.010228918894643876	0.19199063061984173	4.451886494416334	-0.28131171322215875	0.9260243226250713
1734599367.3847485	-0.9983337616638225	-0.013996145025598043	0.19366495334471023	3.2212592916379728	-0.04690653174056619	1.189730151791863
1734599367.4347486	-0.998	-0.01606777972993723	0.1949152527027216	2.1747445810956063	0.1281353783810193	1.4296615540474518
1734599367.4847486	-0.998	-0.011467285552180809	0.19449702595928917	1.8527099886526566	0.069583634300483	1.5760409142487926
1734599367.5347486	-0.998	-0.006866791374424407	0.19407879921585677	1.5306753962097086	0.011031890219946994	1.7224202744501325
1734599367.5847485	-1.0024553047732765	0.00858181220590868	0.1973356013296777	1.0390225704051028	-2.518939045344673	2.6391060954655328
1734599367.6347485	-1.002	0.009718093300028752	0.21279868310766575	-0.8047695438415092	-1.928523045615849	2.305302605845535
1734599367.6847486	-1.002	0.008809746740894958	0.21746212586270428	-1.2560541056258734	-1.7123488103892992	2.390193783549611
1734599367.7347486	-1.002	0.023012009042834	0.21370270348866158	0.29366333967394564	-1.4491892442063112	2.2439940245590617
1734599367.7847486	-1.0032223295344795	0.03424975854742129	0.207860923314661	2.86814757581611	-1.12582769943983	2.03582769943983
1734599367.8347485	-1.0074605832323897	0.014359611178406789	0.21156155528637283	-0.7353402188940599	-1.2474136087557623	2.832240826267287
1734599367.8847485	-1.0100364785169293	0.029613001963125656	0.2062117382769019	0.8982311145291579	-1.8302139847402414	3.107589160308434
1734599367.9347486	-0.9978425132119788	0.027527539635936626	0.2086312389900176	2.0926506165590144	-1.193674691720493	3.647349383440986
1734599367.9847486	-1.0064272087401553	0.03512380764763584	0.20576462075786872	2.08419117037474	-1.2725715411418497	3.4661903823817917
1734599368.0347486	-1.0118425225381347	0.04062990984746143	0.2178976577669425	0.8973116505122035	-0.9248828883471247	3.6328360436859746
1734599368.0847485	-1.0110165567165412	0.04393377313383458	0.21211589701578948	4.135097671157886	-0.6357948507894745	3.2281127911052643
1734599368.1347485	-0.9999052028468565	0.02480569121274751	0.203	0.8366880208680465	-1.0748812920861397	3.7033641992799535
1734599368.1847486	-1.0067671048539846	0.041573402635585684	0.20168101497914068	0.40068419415938583	-1.164657902920307	4.454657902920307
1734599368.2347486	-0.9937269285984133	0.035423936531922946	0.1970910238005289	0.7678613902531177	-2.0278613902531175	4.9
1734599368.2847486	-0.9988201252091315	0.03995122240811701	0.19539329159695612	1.0253507744616548	-2.2853507744616546	4.9
1734599368.3347485	-1.00391332181985	0.0444785082843111	0.19369555939338334	1.282840158670194	-2.542840158670194	4.9
1734599368.3847485	-1.008978658084059	0.04901422794396064	0.19200609769026886	1.5436992654297665	-2.800995956077245	4.8997865808405905
1734599368.4347486	-0.9923030836804241	0.06013127754638393	0.19677054751987882	4.434132162059821	-3.579189428246875	4.733030836804241
1734599368.4847486	-1.0070486004433217	0.08765046651889273	0.2104074643022837	11.745602350636652	-4.0810653126449825	3.2648795298726694
1734599368.5347486	-0.9806116297054951	0.0772224108019982	0.24594439729950043	8.705210124783145	-2.0533531342098112	2.8933531342098116
1734599368.5847485	-0.9729190957925684	0.04588452922929899	0.23640769805138007	-0.6964817063544855	-1.5012331815796283	3.759269431798302
1734599368.6347485	-1.0205768962837156	0.11870315125445667	0.23387911322391877	6.448462074325686	-0.19923452027980157	1.6376896283715703
1734599368.6847486	-1.0175584559141022	0.10231733210512668	0.23301670168974353	6.508830881717954	-0.6218161720256803	1.3358455914102283
1734599368.7347486	-1.0145400155444888	0.08593151295579685	0.23215429015556827	6.5691996891102225	-1.0443978237715554	1.0340015544488892
1734599368.7847486	-1.0141206213079772	0.10091589847508371	0.21258502335481583	-1.8288306601162099	-2.327790376418355	0.7495241825814463
1734599368.8347485	-0.9980574445155151	0.0980977972834237	0.21878484597646783	-2.1247312852405105	-3.393032626865838	0.5325303908236256
1734599368.8847485	-0.9819942677230532	0.09527969609176372	0.2249846685981198	-2.4206319103648086	-4.458274877313311	0.315536599065807
1734599368.9347486	-0.96296176743756	0.1160382325624399	0.3466921550416266	5.85545044526356	-27.27563566142328	2.8376994313907584
1734599368.9847486	-0.9550296609777725	0.12397033902222748	0.3519802260148183	16.898705327612262	-31.90269776296603	2.590922785975145
1734599369.0347486	-0.9490156294765588	0.07946668576665102	0.38478749641875293	24.945815884278478	-44.54646831129723	1.832322436182685
1734599369.0847485	-0.9426237831379648	0.052194808055316656	0.38990097348962816	20.113580052301423	-45.172869252479444	2.51838060985844
1734599369.1347485	-0.9513800044824026	0.04990609046448899	0.3994217420537408	11.445484323597428	-46.33050470252056	3.077078370006324
1734599369.1847486	-0.9674411750621443	0.10490586094459514	0.4572058753107221	22.62853404554487	-45.821174104402616	0.4129996647903711
1734599369.2347486	-0.8731625471089393	0.13690005383878773	0.54441241251197	24.434842885265816	-55.21512358673182	0.9423669914803274
1734599369.2847486	-0.8610960303141144	0.12310974893041644	0.5668216579880733	16.651939552603785	-55.577119090576566	2.993674846600553
1734599369.3347485	-0.8449991574565101	0.17987510531793624	0.5945743470287953	19.088828963671546	-49.757807503593185	2.917280963473255
1734599369.3847485	-0.813	0.14699901320966435	0.6595261080441399	11.741689831440347	-47.91313789924846	5.52265520997909
1734599369.4347486	-0.813	0.1632871396365555	0.6629551872919065	9.911418782944947	-48.243186776845995	5.1325974455456445
1734599369.4847486	-0.8093470633230168	0.1680187227132047	0.6729700436588725	11.051612224484291	-48.97465709544936	3.9934075338032566
1734599369.5347486	-0.7721838968195408	0.15144830954137753	0.7106690906454323	19.777600261021995	-51.86072719362969	2.4160364321875947
1734599369.5847485	-0.7551893654862387	0.202431903541284	0.7169302337682278	13.579068569454423	-53.739070130468356	0.7881392202607573
1734599369.6347485	-0.7178122224672077	0.179	0.7506604858201908	15.75978061128976	-52.03460694658806	-1.7177513738835262
1734599369.6847486	-0.6683652470045197	0.2151853871483367	0.7805362483358443	15.255118688207181	-49.20391822579095	-3.87657429750723
1734599369.7347486	-0.6393323556440037	0.21113411548479707	0.7918658845152029	20.67571457344382	-45.35551127279134	-8.028774153764841
1734599369.7847486	-0.6435310514798479	0.20777515881612166	0.7952248411838784	20.46997847748745	-44.59134863066768	-8.99867289184487
1734599369.8347485	-0.6053694750215292	0.2102569742754584	0.8461322464849378	7.756443703583821	-43.39427446901031	-10.27911953342829
1734599369.8847485	-0.5418903982742302	0.2701597650088251	0.8282508164152761	30.412215601845183	-41.328969295964384	-15.536259973908827
1734599369.9347486	-0.5065019339362957	0.26477348014156515	0.8612226519858435	26.643334321667314	-39.48792819504522	-15.796756917027132
1734599369.9847486	-0.5027908902870625	0.2730202438065278	0.8603979756193472	25.575378427054655	-39.19929146677153	-15.623574880062916
1734599370.0347486	-0.5034718000542565	0.2727305271790114	0.857752909041585	26.90036749494192	-38.1791403443013	-15.33551472278423
1734599370.0847485	-0.5082490007061635	0.264478998780263	0.8534099993580332	30.457210525770844	-36.476719748349	-14.940309941581017
1734599370.1347485	-0.5115542523212829	0.2563061588208753	0.8503565981429736	33.23751906499592	-35.02143111746127	-14.542633454971464
1734599370.1847486	-0.5094791955260387	0.24842094299894715	0.852016643579169	33.179417474729085	-34.4694660099263	-14.13592232310359
1734599370.2347486	-0.5074041387307945	0.24053572717701907	0.8536766890153644	33.12131588446225	-33.91750090239134	-13.729211191235722
1734599370.2847486	-0.5175367713546377	0.24105444135626275	0.8207593121179417	-3.8535434176587513	16.93886329448336	-6.688175745781993
1734599370.3347485	-0.5782891007194244	0.267076690647482	0.8482891007194244	-7.566816187050355	34.78194748201439	-3.423183812949645
1734599370.3847485	-0.6076661263234758	0.26636061579651954	0.794474068394791	-14.089627260557345	35.72711505415604	1.8121717901910774
1734599370.4347486	-0.630309088162427	0.2018367316108875	0.7935376639071846	-27.947064656474744	39.92849344371262	3.743064958607768
1734599370.4847486	-0.674662414647411	0.2516210776654612	0.7681929059157653	-32.445759199951674	40.942283763369396	3.362893588736478
1734599370.5347486	-0.7400549222369291	0.27783093563864986	0.6949450777630708	-19.96790217571145	51.72737152547982	4.730158793845136
1734599370.5847485	-0.805975747247535	0.1737530315940581	0.6528687958831605	-4.3602982106354276	65.93745346099116	1.235457557683186
1734599370.6347485	-0.8631349542972385	0.22226990859447715	0.5924646036216963	-6.9338723943531	73.11283171026429	-4.7420347686232365
1734599370.6847486	-0.8844936849223584	0.14746842461179197	0.6196886328602451	-13.39571683586683	72.91359139956569	-8.431713265653269
1734599370.7347486	-0.8761302936293663	0.2019717673100463	0.5997488236379186	-9.309341237234413	70.42813240990726	-5.827911726728492
1734599370.7847486	-0.8915514549325763	0.15622427253371185	0.5936848828956707	-9.481596877217886	69.13242725337119	-6.213456352022711
1734599370.8347485	-0.9113524294546937	0.1625286441820406	0.5624670061828562	-9.540050927428421	65.1240611129141	-6.596649690857193
1734599370.8847485	-0.8972582044494555	0.15467677965963203	0.520193188558543	-15.153981515069837	62.06967182202178	-6.79450773303267
1734599370.9347486	-0.9002566570259075	0.14096956788156564	0.5124828819333807	-17.522759050466938	61.9497337189637	-6.614600578445549
1734599370.9847486	-0.9470404050611233	0.1289598304395298	0.4511193311781453	-47.26948526408183	64.46439274657989	-1.3300164850457141
1734599371.0347486	-0.9884993533858512	0.16069702557491547	0.35079974135434044	-28.440031372005077	64.91776463244983	0.6718732636268323
1734599371.0847485	-0.9842215989523626	0.1410193551808681	0.34908863958094505	-22.03195523063922	63.36066201866	-0.16656660533692436
1734599371.1347485	-1.0104160541934426	0.12029118824444382	0.3282660005730423	-13.705860120338878	58.537995710367966	-0.025377815071023102
1734599371.1847486	-1.0065532634767302	0.14647232532438315	0.3123856387376692	-10.37098413491054	57.57659002087511	-0.6563002988007085
1734599371.2347486	-0.9927318792476686	0.12821710131183797	0.30222519361466726	-5.627955745218882	54.25036952742214	-0.7448522206416934
1734599371.2847486	-0.9751424947258792	0.12527230485753196	0.18742241033994714	-10.803886025582823	24.59065959889978	3.03814804924293
1734599371.3347485	-0.9755732886068721	0.14121167845426688	0.1947459063168253	-18.07137879793195	23.80661473549282	5.239504781116317
1734599371.3847485	-0.9837260593494969	0.1345944278864592	0.18989584035245496	-17.93281897109451	22.56128573279719	6.194131916546502
1734599371.4347486	-1.0028274398192405	0.19571852959068423	0.0961159824454677	22.38198079429941	34.47108919787959	-1.7372278439211497
1734599371.4847486	-0.9745831872048142	0.0900179472950812	0.09325043838555729	9.317386284882781	21.57765343494505	-1.4932924173479867
1734599371.5347486	-0.9753203528768197	0.07658839066288915	0.10077472464667413	8.155869291878608	8.97983254272161	-1.444581928330571
1734599371.5847485	-0.9646187632165513	0.08900223466880054	0.09092926215922716	3.870952791907124	5.324169514773909	-1.2647952220380612
1734599371.6347485	-0.9684270609518394	0.09301796618411282	0.09133086905100382	-5.398953833854588	-13.163255399374494	2.325687266913078
1734599371.6847486	-0.9718839001594778	0.1336358268738645	0.06972562400326358	-2.071746096502591	-17.15590468419689	0.7528254274375885
1734599371.7347486	-0.9800035076583187	0.1678059630191417	0.07179544004418575	2.0063950958732653	-21.559386159794236	-0.9523437505152275
1734599371.7847486	-0.9843255362471766	0.17515341162020015	0.06617680287867048	7.421896917712232	-20.803031156744105	-1.375902552223303
1734599371.8347485	-1.0049591257961783	0.1252452452229298	0.07195912579617836	19.49070820859873	-20.07569402866243	-1.962861194267514
1734599371.8847485	-1.0044036292637177	0.11006032387681983	0.07715056391433364	19.309460525996645	-21.44571356385777	-1.5994605259966446
1734599371.9347486	-1.0003317251278732	0.08331483897054336	0.09117913025898164	17.777804799547106	-24.572364062026196	-0.7577986050178841
1734599371.9847486	-1.0014218787158153	0.09187191438764317	0.12142187871581539	2.3344908442308743	-36.15588061831288	-1.3214701545782184
1734599372.0347486	-1.0155876138626576	0.08447044615613529	0.2094394808127791	-6.108571052948047	-49.5297782366142	-1.8801725800172442
1734599372.0847485	-1.0087483266851875	0.12336889197799543	0.23123970869096447	-0.9021636890990745	-48.30298109915553	-4.184157447927422
1734599372.1347485	-0.9992685255647081	0.09412350376472094	0.2721944233058756	24.331051684471326	-47.80308378917563	-6.142932263176523
1734599372.1847486	-0.9980032704002831	0.085688469335221	0.27599018879915055	23.91773499742583	-48.275445717227626	-6.113409642673274
1734599372.2347486	-0.9558385597621151	0.13681034368333725	0.43410815057424207	8.576427511905054	-47.76830703527333	-7.196834045120564
1734599372.2847486	-0.9709170183403668	0.12692255045100903	0.4351383027660553	18.814306526130522	-46.297107342146845	-8.814191283825677
1734599372.3347485	-0.96462543650873	0.12105040740814808	0.4456242724854499	28.239096109922333	-48.352357407148176	-8.373780555611106
1734599372.3847485	-0.9583338546770934	0.11517826436528725	0.4561102422048442	37.66388569371397	-50.407607472149465	-7.933369827396543
1734599372.4347486	-0.9726011427089941	0.0958594295097037	0.4696320001728402	25.713999913579922	-53.930080032839626	-3.7477599446911496
1734599372.4847486	-0.9701297424485554	0.1115116311591485	0.4725153004766852	24.272349761657374	-54.4779070905702	-2.8251038474607197
1734599372.5347486	-0.9349808241327909	0.12841826465560074	0.5033196314730132	20.961132529917553	-55.98350673302847	-0.04391778883807887
1734599372.5847485	-0.8925937798438639	0.1319505183463447	0.5651340710610318	18.859441583924916	-58.208826558197146	-0.414804426366191
1734599372.6347485	-0.8086846591407774	0.1495612777571123	0.6445841371210765	23.327157771991452	-57.81491047926339	-1.343668406732336
1734599372.6847486	-0.7525558758725358	0.1362098053616587	0.7204196107233174	10.85351259645958	-50.160627249367785	1.8718413881638285
1734599372.7347486	-0.7333561493061418	0.1404764112653018	0.7289528225306037	7.508493568003373	-49.563302422857745	2.4990324559993677
1734599372.7847486	-0.705732144703733	0.17615816414463478	0.7615153045396574	7.489017657095585	-44.01821429802489	1.8868750215435524
1734599372.8347485	-0.6721819726379217	0.16013577155463388	0.8452270410431176	7.900456347442419	-50.43178574603646	0.9704563474424186
1734599372.8847485	-0.667003052304045	0.17998829950116088	0.8529954215439325	7.840035610213858	-51.51935901615055	0.9100356102138583
1734599372.9347486	-0.6407762008354689	0.16984885193631055	0.8572296450265373	13.110137703065442	-52.76351563780196	1.4429352733436964
1734599372.9847486	-0.6202678327238034	0.16332829482490796	0.8573282948249079	10.629121861125022	-54.818464694154635	2.052980637743557
1734599373.0347486	-0.5281239687714624	0.1778240146957824	0.8608079742823808	9.227681028704769	-50.45067138459756	0.5403987141190392
1734599373.0847485	-0.5207488572705231	0.18129465540210676	0.8547343530463132	9.470625878147475	-48.4160082705149	0.2367176523156571
1734599373.1347485	-0.5111108874649578	0.18381480416499799	0.8472220624749698	9.634072583099718	-45.53362915498592	0.06481854225070396
1734599373.1847486	-0.4772184541641666	0.17298665867784713	0.8255497503495139	6.658326742559707	-37.39571959256872	0.05284042340693826
1734599373.2347486	-0.46704590287742614	0.1906248772751304	0.8146875613624348	-2.9522311003700774	-2.520379578581611	-0.6425419530246957
1734599373.2847486	-0.49570766961529006	0.19442246426026777	0.8272201384172434	-5.931781257421905	23.358289992874973	-3.0148040616835905
1734599373.3347485	-0.5299043000785023	0.18709569992149766	0.8530188471881215	0.08735589851518433	32.77245013445579	-5.765848123465466
1734599373.3847485	-0.5588355686133021	0.16950548253526476	0.85084531037919	-6.752484820370092	39.06869687129532	-4.8855908458327075
1734599373.4347486	-0.6208777330234332	0.16191254325013912	0.8732882623280641	-10.565408520632303	44.03153049312257	-3.864680660849941
1734599373.4847486	-0.6200270684011341	0.1891338111637077	0.8613789576158779	-11.994525086094654	43.555158304635114	-2.018738430461071
1734599373.5347486	-0.6610139492415282	0.15739125111539978	0.8073513000892321	-14.721083525285856	46.12245396252257	-1.6894989312913735
1734599373.5847485	-0.6854093975625252	0.22711600696421377	0.76698178990189	-16.892551781897918	51.52127470686769	-1.5836240974989926
1734599373.6347485	-0.686968977289245	0.21465123571493078	0.7475736789380432	-11.539701833438691	55.588669474246664	-1.7841856538426804
1734599373.6847486	-0.7914881387645062	0.11835932318709315	0.6834338916742144	1.511999404663162	74.98091573857911	-3.6587454297268533
1734599373.7347486	-0.8541265233480468	0.13435925873684879	0.6630013540871528	-15.68	89.15390402741363	2.371238151737413
1734599373.7847486	-0.8619566517871959	0.05344793153230891	0.6699614682552852	-15.68	89.9456170140387	2.310337152766254
1734599373.8347485	-0.9018679900744418	0.1082486352357325	0.6129746898263023	-40.97094789081894	90.61268982630274	3.6026898263027323
1734599373.8847485	-0.9454888948182935	0.1364956877265424	0.549634177999811	-29.52983017729378	95.4828716990891	-0.6854037527657666
1734599373.9347486	-0.9596179835983373	0.09991306471701461	0.5328882260647331	-33.71085958300313	95.83521611697913	-1.7439145301910235
1734599373.9847486	-0.9883650494886106	0.13287282167596912	0.5031902969316638	-27.541884468743184	100.82446535797256	0.5122232678986279
1734599374.0347486	-0.976194833774891	0.044194833774891036	0.3969913896248184	6.543289932484403	78.5578433894539	-5.37254905563627
1734599374.0847485	-0.9467744668068364	0.025784650045054546	0.3819537999399273	-9.634458095530542	63.02587203364073	-1.600680684888728
1734599374.1347485	-0.9647098865009277	0.018599675838480864	0.3524457050725744	-29.303225270985504	49.14964344785331	4.549886543468303
1734599374.1847486	-0.977543818067167	0.026410113708020617	0.2735898862919794	-34.787090246333484	34.461628363947014	8.48612387868433
1734599374.2347486	-0.9761427542300531	0.023571377115026576	0.24080966102659582	-35.87780099033246	24.104477262194163	10.538886087373669
1734599374.2847486	-0.9787404050855723	0.04420948846945207	0.23208848610268668	-40.15986941163878	19.19703357476719	10.1913992459652
1734599374.3347485	-0.986605334119396	0.1075795623680992	0.17063110587069294	12.7346508514255	14.692720990439035	-0.6668984013875414
1734599374.3847485	-0.9606195797516796	0.09560066857689026	0.1915817574021009	15.193971346705768	3.6822808022939078	10.109430754530244
1734599374.4347486	-0.9630397385786594	0.07309003908645617	0.18267152944158704	11.450879964511428	-0.5279226243529975	1.0823592233406725
1734599374.4847486	-0.9651833118003483	0.056370167957282565	0.1865299612406271	6.859346123653749	-1.8183537038097304	2.072690051760956
1734599374.5347486	-0.9657317295594828	0.05566208445566542	0.2125365408810342	-10.271157233447887	-15.677289937430865	5.203894654180986
1734599374.5847485	-0.9674072288180728	0.056152409437275244	0.21053734956837253	-17.987659687867563	-22.524692729669663	5.800301217627939
1734599374.6347485	-0.9809967231572061	0.08418074151173767	0.18675573447488925	-11.120718329624271	-28.29173438983936	4.016680085616693
1734599374.6847486	-0.9872679227396594	0.07834489868467139	0.18855170043844288	-7.118446735396622	-37.063230714540154	3.048619030691001
1734599374.7347486	-1.0045191260951143	0.07977776939934135	0.19652640863582801	-18.86417095119195	-42.551457262202014	4.986065919896062
1734599374.7847486	-1.0040133552101638	0.09006177739333437	0.20023539512546484	-19.1946079293596	-42.4688480176601	4.561218376537662
1734599374.8347485	-1.0035075843252133	0.10034578538732777	0.2039443816151018	-19.525044907527253	-42.38623877311819	4.136370833179246
1734599374.8847485	-1.003001813440263	0.11062979338132081	0.20765336810473864	-19.8554818856949	-42.30362952857627	3.7115232898208452
1734599374.9347486	-1.0024960425553124	0.12091380137531421	0.2113623545943756	-20.185918863862558	-42.22102028403436	3.28667574646243
1734599374.9847486	-1.008857871472296	0.11042638558311219	0.22117208432506635	-20.22196939816357	-36.37938796327141	2.293938796327141
1734599375.0347486	-1.0003418414568264	0.1168306292445751	0.24480510487409585	-19.36720681530061	-33.80485687841772	0.6537119057594868
1734599375.0847485	-1.0017545007146986	0.12191620257291481	0.24565270042881912	-17.132379869346877	-33.725747959976886	-0.058268360208074244
1734599375.1347485	-1.0031671599725707	0.12700177590125436	0.2465002959835424	-14.897552923393224	-33.64663904153605	-0.7702486261756101
1734599375.1847486	-0.9752675896586182	0.0982253461219818	0.29218310258534547	-15.858446580630806	-5.643376647335627	1.8850699332951806
1734599375.2347486	-0.9716744398037256	0.0896511203925487	0.3468372199018628	-5.53	6.25442157252159	-1.1753406755656266
1734599375.2847486	-0.9699916226333337	0.09301675473333253	0.34599581131666685	-5.53	6.018827168666723	-1.8232252861665121
1734599375.3347485	-0.9683088054629417	0.09638238907411648	0.34515440273147086	-5.53	5.783232764811848	-2.4711098967674205
1734599375.3847485	-0.9683418420149009	0.0997347361192075	0.344658157985099	-3.1131769546503762	5.548568471655475	-3.738589170067148
1734599375.4347486	-0.9687605121100082	0.10308409688006583	0.34423948788999176	-0.15317938224182814	5.314113218395392	-5.145320689627646
1734599375.4847486	-0.9776004294181168	0.07092327786328396	0.3465620683497588	12.723738054948756	7.882663803879222	-14.022599391161702
1734599375.5347486	-1.0745728429985855	-0.1271840523338048	0.327495756718529	-36.108997524752475	4.07884900990099	-9.329443069306931
1734599375.5847485	-0.9798615248227023	0.028050354609926435	0.3021132978723345	4.490959219861254	2.105287234042276	-10.771187943262873
1734599375.6347485	-0.9767396463968891	-0.007795592138667387	0.3068977960693337	-3.421150403097604	-0.419660935648849	-8.374620972635602
1734599375.6847486	-0.9744769112646703	0.018916957332456033	0.3416953822529341	-5.538176264121926	-1.0894140616430774	-5.3596313480311535
1734599375.7347486	-0.9735488106679482	-0.0046443008169161255	0.3415097621335897	-1.866766122056661	-0.2717998077847038	-5.422949951946176
1734599375.7847486	-0.9753223671698216	-0.0346282850943755	0.3418305917924554	-1.0201815122593065	0.19929287264061232	-5.296282850943755
1734599375.8347485	-0.9736944026765926	-0.0289304093680741	0.3414236006691482	-1.7893947353099964	0.34173976579814747	-5.239304093680741
1734599375.8847485	-0.9720664381833636	-0.02323253364177269	0.34101660954584095	-2.558607958360686	0.48418665895568264	-5.182325336417727
1734599375.9347486	-0.9736674674226599	-0.008826526907390723	0.3293277280413806	-0.37226832786231334	0.7234454391723881	-5.063277280413806
1734599375.9847486	-0.981434674732597	-0.023572867549774904	0.33173115664801633	-0.16655783240081604	1.243115664801632	-4.614195901678531
1734599376.0347486	-0.9789057454610572	-0.04635861819158591	0.2839248969979149	0.43716484810499223	-0.1136087290960372	-0.49
1734599376.0847485	-0.9806127802626706	-0.0489191703940059	0.29132204780490595	0.33758781801088145	-0.591578473547769	-0.49
1734599376.1347485	-0.9823198150642839	-0.05147972259642589	0.29871919861189705	0.23801078791677066	-1.0695482179995008	-0.49
1734599376.1847486	-0.9737705629770946	0.0010815839694905335	0.32095071564886174	3.169487118321979	-0.2731235687017177	-0.6001631679389811
1734599376.2347486	-0.9798286233016104	-0.026256157269402874	0.312742027174234	2.6635751598110273	1.2940108933381789	-0.09794916442183232
1734599376.2847486	-0.9838284528292403	-0.036915589828222455	0.29687338474233366	4.563103724150642	1.821477178006107	-0.588257260020357
1734599376.3347485	-0.9783475065462108	-0.016040419799446835	0.2914346456626618	7.353049869075782	1.4487244108410224	-1.2630498690757828
1734599376.3847485	-0.9956012170064141	-0.014601217006414093	0.29189802236457707	1.1336379405918076	0.44098935119387667	-0.10494675596938347
