ts_receiver	acc_x	acc_y	acc_z	gyr_x	gyr_y	gyr_z
1734657922.7080896	0.977	-0.107	-0.102	1.68	-2.31	0.84
1734657922.7580895	0.9773852090410464	-0.09881972127860474	-0.10981972127860473	0.9587524301127588	-1.4022658392301808	0.77
1734657922.8080895	0.9767579058305755	-0.09965612555923253	-0.11065612555923253	0.6513738569820438	-0.9046052922566422	0.77
1734657922.8580897	0.9761306026201048	-0.10049252983986033	-0.11149252983986033	0.3439952838513285	-0.4069447452831034	0.77
1734657922.9080896	0.9755032994096339	-0.10132893412048813	-0.11232893412048812	0.036616710720613455	0.09071580169043525	0.77
1734657922.9580896	0.9754957586580777	-0.10117373556987053	-0.11151272402576695	0.2642757828943172	0.28178136360737294	0.77
1734657923.0080895	0.9779951112967715	-0.09702261025243183	-0.10399022259354299	2.658845043862266	-0.7703849853792447	0.7698716715402518
1734657923.0580895	0.9746577565594478	-0.11245787591255398	-0.09731551311889558	1.8703949871695407	-1.0332016709434866	0.6822661096855045
1734657923.1080897	0.9713204018221241	-0.12789314157267612	-0.09064080364424817	1.0819449304768154	-1.2960183565077281	0.5946605478307573
1734657923.1580896	0.971462906434076	-0.10815531966465702	-0.12457266085190047	2.4425896896269146	-1.4682689669235476	1.5157655369296652
1734657923.2080896	0.973	-0.08985153240663206	-0.16208432423379668	3.826099062133646	-0.9844900351699882	2.5734144196951934
1734657923.2580895	0.973	-0.11410263814787348	-0.15957558915711653	2.8016989058225863	0.5374759113493011	2.719757299168202
1734657923.3080895	0.973	-0.13835374388911492	-0.15706685408043639	1.7772987495115262	2.05944185786859	2.8661001786412106
1734657923.3580897	0.9663617635700668	-0.13485110223129176	-0.0723624855183515	4.770397575619612	1.4029851748570126	1.766393193523603
1734657923.4080896	0.966594836736094	-0.11772839795148285	-0.09906464693751538	1.5934072860377202	-3.055865143327593	2.9517687145111386
1734657923.4580896	0.9729796800554702	-0.10384198009013917	-0.09947629339804864	2.2670204645634193	-4.0783297310682975	3.5608351344658513
1734657923.5080895	0.9779652328265068	-0.11194350334307365	-0.10529277163092468	2.0779849219949478	-3.8747529929176365	3.662623503541182
1734657923.5580895	0.9829507855975435	-0.12004502659600814	-0.11110924986380072	1.8889493794264767	-3.671176254766975	3.7644118726165128
1734657923.6080897	0.9879363383685801	-0.1281465498489426	-0.11692572809667674	1.699913836858006	-3.467599516616314	3.866200241691843
1734657923.6580896	0.9929218911396167	-0.1362480731018771	-0.12274220632955278	1.5108782942895347	-3.264022778465653	3.967988610767174
1734657923.7080896	0.9905983577197203	-0.13656084365065088	-0.12282250844144163	1.9645464545945162	-2.5880795302403405	4.1640070858758484
1734657923.7580895	0.9862581630849907	-0.13472460745903453	-0.12132013337557371	2.595543982259043	-1.7818049115578893	4.386024734498553
1734657923.8080895	0.9819179684502611	-0.13288837126741818	-0.11981775830970579	3.2265415099235706	-0.9755302928754381	4.608042383121257
1734657923.8580897	0.9775777738155316	-0.13105213507580185	-0.11831538324383786	3.857539037588098	-0.16925567419298693	4.83006003174396
1734657923.9080896	0.973237579180802	-0.1292158988841855	-0.11681300817796994	4.488536565252625	0.6370189444894643	5.052077680366665
1734657923.9580896	0.9688973845460724	-0.12737966269256915	-0.11531063311210203	5.119534092917149	1.443293563171912	5.274095328989367
1734657924.0080895	0.9678680769297872	-0.12765961535106432	-0.10906346184042112	5.480865372872512	1.591530770170199	5.347703844744702
1734657924.0580895	0.9677017674945321	-0.12849116252733955	-0.1015795372539441	5.771906884568841	1.5682474492344929	5.382628826148261
1734657924.1080897	0.967535458059277	-0.12932270970361479	-0.09409561266746708	6.06294839626517	1.5449641282987865	5.417553807551821
1734657924.1580896	0.967369148624022	-0.13015425687989	-0.08661168808099005	6.353989907961498	1.52168080736308	5.45247878895538
1734657924.2080896	0.9672028391887669	-0.13098580405616522	-0.07912776349451306	6.645031419657825	1.498397486427374	5.487403770358939
1734657924.2580895	0.9670365297535118	-0.13181735123244046	-0.07164383890803605	6.936072931354154	1.4751141654916675	5.522328751762498
1734657924.3080895	0.967	-0.15798033036727765	-0.08753672299791243	5.726963812003395	0.6516195934307535	5.302672109286321
1734657924.3580897	0.967	-0.15933811378578613	-0.09553901312912917	5.108179387307305	0.03955153173173659	5.077730919039042
1734657924.4080896	0.9666706150396702	-0.1539052390479143	-0.09465876992065952	4.442177688861331	-0.5550250500155014	4.8316583166615
1734657924.4580896	0.9664057018857889	-0.17044840734745098	-0.096085410923324	2.9130955591529424	-1.465766410959474	4.530569014943792
1734657924.5080895	0.9683788889290554	-0.17262929829000873	-0.09650081872190643	2.782242102599478	-1.785630415867943	4.436063740766289
1734657924.5580895	0.970352075972322	-0.17481018923256647	-0.09691622652048885	2.651388646046013	-2.105494420776412	4.341558466588787
1734657924.6080897	0.9723252630155885	-0.1769910801751242	-0.09733163431907128	2.5205351894925485	-2.4253584256848812	4.247053192411285
1734657924.6580896	0.9742984500588551	-0.17917197111768193	-0.0977470421176537	2.389681732939084	-2.7452224305933504	4.1525479182337826
1734657924.7080896	0.9762716371021216	-0.18135286206023968	-0.09816244991623613	2.2588282763856196	-3.0650864355018186	4.058042644056281
1734657924.7580895	0.9782448241453882	-0.18353375300279742	-0.09857785771481856	2.1279748198321546	-3.3849504404102886	3.9635373698787784
1734657924.8080895	0.9802180111886547	-0.18571464394535517	-0.09899326551340099	1.9971213632786906	-3.704814445318757	3.8690320957012765
1734657924.8580897	0.9821911982319211	-0.18789553488791289	-0.09940867331198341	1.8662679067252266	-4.024678450227224	3.7745268215237746
1734657924.9080896	0.9841643852751877	-0.19007642583047066	-0.09982408111056584	1.7354144501717612	-4.344542455135695	3.6800215473462723
1734657924.9580896	0.9488551333631351	-0.19553381016241989	-0.2103432871405156	-2.3233366115333034	-22.05	-3.856391893905528
1734657925.0080895	0.9576331903527505	-0.17689453084117443	-0.2077840214652716	-1.232912063910903	-22.26105844558623	-3.0012058981005736
1734657925.0580895	0.9631415410787996	-0.1900298287263683	-0.2306648629427061	-0.6693654127074236	-22.97290684710641	-2.971545548037233
1734657925.1080897	0.9686498918048487	-0.2031651266115623	-0.25354570442014085	-0.10581876150393899	-23.684755248626605	-2.9418851979738916
1734657925.1580896	0.9659969535981456	-0.19451669557309162	-0.2494680724176368	1.0917047922962746	-24.00659637911816	-2.7519144621996507
1734657925.2080896	0.9627900797978294	-0.184389725677356	-0.24356067331179101	2.3322586045238896	-24.30196633441045	-2.551062892600894
1734657925.2580895	0.959583205997513	-0.1742627557816203	-0.23765327420594518	3.572812416751515	-24.597336289702742	-2.350211323002136
1734657925.3080895	0.9563763321971968	-0.16413578588588465	-0.2317458751000994	4.813366228979129	-24.892706244995033	-2.1493597534033793
1734657925.3580897	0.9531694583968805	-0.15400881599014893	-0.22583847599425355	6.053920041206755	-25.188076200287323	-1.9485081838046208
1734657925.4080896	0.9489607167297236	-0.1440096229932433	-0.22229989538514855	7.313680476351548	-25.630214924527902	-1.7958054478381047
1734657925.4580896	0.859883759527424	-0.14483440963400532	-0.4194239025272746	10.200433719018665	-38.50513438682325	-5.721789857865385
1734657925.5080895	0.8410055029904117	-0.14831499003196102	-0.4769009461725896	11.012049302237273	-41.739738046264364	-6.649229581342364
1734657925.5580895	0.8397611879370905	-0.15246270687636468	-0.4992986171323693	11.302389481345529	-42.552690547767476	-6.823433688807317
1734657925.6080897	0.8358879297915438	-0.15478537446838234	-0.5148243170187502	11.01426259638967	-43.19272597852574	-6.945023787213236
1734657925.6580896	0.827872656631992	-0.1542325970091029	-0.5195229254226253	9.814735509753294	-43.560322988946574	-6.983718209362797
1734657925.7080896	0.8198573834724403	-0.15367981954982346	-0.5242215338265006	8.615208423116917	-43.9279199993674	-7.022412631512357
1734657925.7580895	0.8118421103128883	-0.153127042090544	-0.5289201422303759	7.415681336480529	-44.29551700978823	-7.061107053661918
1734657925.8080895	0.7705080851200281	-0.16335853505048442	-0.567549689558006	8.182327589454996	-42.61257495701109	-6.299583955620221
1734657925.8580897	0.663182106721659	-0.19351939807952598	-0.6537119868531296	4.939685538441663	-42.37087030353806	-4.026333505187836
1734657925.9080896	0.5394375922019004	-0.19377503688076012	-0.7597213337351882	4.147779873415697	-45.6701233403658	-3.004514014688845
1734657925.9580896	0.5248835083517076	-0.18795340334068306	-0.7746912485525294	-0.567743294046732	-45.932096849669264	-0.7922932694595577
1734657926.0080895	0.5103294245015149	-0.1821317698006059	-0.7896611633698705	-5.283266461509203	-46.19407035897274	1.4199274757697498
1734657926.0580895	0.4562380658337337	-0.1746128640076886	-0.8179069581931764	-7.602036833253248	-41.316282316194126	1.096539235944257
1734657926.1080897	0.40123107560467686	-0.16705465160980293	-0.8464602050296334	-9.865301545731235	-36.31946411981416	0.7144296091622591
1734657926.1580896	0.36131083338389036	-0.16551621428138083	-0.8772053808974904	-7.560571675868047	-38.19161665554412	-0.7489983295921128
1734657926.2080896	0.3395924992364012	-0.16639504891480017	-0.8998889712619988	-5.535209018471676	-42.89532760609574	-1.7214749465480887
1734657926.2580895	0.3290202645758394	-0.16494395788295835	-0.9092174136095534	-8.234238337697475	-45.042942333221646	-0.9814185203087566
1734657926.3080895	0.31844802991527754	-0.16349286685111653	-0.918545855957108	-10.933267656923249	-47.19055706034753	-0.2413620940694312
1734657926.3580897	0.3078757952547157	-0.1620417758192747	-0.9278742983046626	-13.63229697614905	-49.338171787473435	0.4986943321699009
1734657926.4080896	0.2973035605941539	-0.16059068478743288	-0.9372027406522171	-16.331326295374822	-51.485786514599326	1.2387507584092265
1734657926.4580896	0.2598411835062058	-0.15268555518519245	-0.9375865924197565	-18.21508374345601	-56.28541871728005	2.666424501480363
1734657926.5080895	0.21210968308948955	-0.13242408106291664	-0.937772775681125	-20.53653435351292	-61.86251863723312	5.258502920953337
1734657926.5580895	0.17598613194327514	-0.10267498889712304	-0.9455547851079596	-24.437151978830965	-64.92611652519061	8.28152104508895
1734657926.6080897	0.13094641691932585	-0.0896079110815328	-0.9430525787177403	-28.01808734616718	-64.34226836747274	8.00905857148728
1734657926.6580896	0.08590670189537693	-0.07654083326594269	-0.9405503723275209	-31.599022713503366	-63.75842020975489	7.736596097885613
1734657926.7080896	0.04086698687142801	-0.06347375545035258	-0.9380481659373016	-35.17995808083955	-63.17457205203703	7.464133624283947
1734657926.7580895	0.010360624631890678	-0.0520186543247216	-0.9337668401755252	-34.05467422252645	-61.164694735836754	6.139181645734183
1734657926.8080895	-0.009669161586094044	-0.04172556974047945	-0.9282030106705295	-29.536844664469903	-58.12684382610907	4.055527496113273
1734657926.8580897	-0.029698947804078404	-0.03143248515623749	-0.9226391811655338	-25.01901510641343	-55.08899291638144	1.9718733464924005
1734657926.9080896	-0.04972873402206277	-0.021139400571995523	-0.9170753516605381	-20.501185548356958	-52.05114200665381	-0.1117808031284726
1734657926.9580896	-0.06890030371569097	-0.01639818692139698	-0.9040163130996558	-16.82757673329663	-44.93471239164786	-2.233824950764374
1734657927.0080895	-0.08806009090020753	-0.011733195259079909	-0.8908543723381184	-13.165558278377729	-37.76228771083536	-4.356396157118642
1734657927.0580895	-0.10721987808472441	-0.007068203596762752	-0.8776924315765806	-9.50353982345876	-30.58986303002273	-6.478967363472948
1734657927.1080897	-0.12637966526924096	-0.0024032119344456794	-0.8645304908150432	-5.841521368539858	-23.417438349210233	-8.601538569827216
1734657927.1580896	-0.14553945245375752	0.0022617797278713936	-0.8513685500535056	-2.179502913620958	-16.245013668397732	-10.724109776181486
1734657927.2080896	-0.16469923963827407	0.006926771390188467	-0.8382066092919682	1.4825155412979463	-9.072588987585235	-12.846680982535753
1734657927.2580895	-0.15803895627818038	0.025016819044709614	-0.8343147415590366	4.32032275712678	1.4733761195272947	-12.278074454642656
1734657927.3080895	-0.15096689908533492	0.043320967073250755	-0.8305707112804714	7.144985600622105	12.073141841509756	-11.666549509143668
1734657927.3580897	-0.13749635142537794	0.049290103720410365	-0.8495187553550756	4.858910552433043	18.315391093569115	-10.127577790307775
1734657927.4080896	-0.11940145678115568	0.04634442319693232	-0.8848669216368121	-1.120820910227387	21.408355643221064	-7.918317397699241
1734657927.4580896	-0.10929831245190577	0.04182956499953273	-0.9154683378436687	-5.302068484189303	22.56518554677791	-6.09148234606368
1734657927.5080895	-0.13035660931482038	0.03119616757370456	-0.927561221190689	-2.470665797076626	16.172637211956506	-5.755800584189497
1734657927.5580895	-0.15141490617773462	0.02056277014787658	-0.939654104537709	0.3607368900360006	9.780088877135217	-5.420118822315319
1734657927.6080897	-0.17247320304064884	0.0099293727220486	-0.951746987884729	3.1921395771486276	3.387540542313925	-5.084437060441142
1734657927.6580896	-0.19353149990356305	-0.0007040247037793726	-0.9638398712317491	6.023542264261253	-3.0050077925073637	-4.748755298566965
1734657927.7080896	-0.18196474323708325	0.007622848520096199	-0.9563771514799038	8.429461638818593	-2.8956160895330014	-3.7970073405743565
1734657927.7580895	-0.12304116380326548	0.0434714597840273	-0.9205285402159727	10.21777167198481	6.651651990757613	-1.9510098869834218
1734657927.8080895	-0.06411758436944873	0.07932007104795775	-0.8846799289520423	12.006081705150995	16.19892007104806	-0.10501243339252042
1734657927.8580897	-0.0243144451712402	0.06518425559749624	-0.9185700702725087	7.7475496078301616	18.857521702863128	4.366492351638624
1734657927.9080896	0.015119031587622733	0.050082073008995545	-0.9538084963123437	3.3721117078839864	21.382942235717966	8.888757026750778
1734657927.9580896	0.03726587014941202	0.053022853015153304	-0.9677493651940234	-1.3374653182834122	21.943844653122802	10.85035549134683
1734657928.0080895	0.04775668672300064	0.06812962888112091	-0.9673297325310799	-6.272345434499498	21.18011320656555	11.085349782595214
1734657928.0580895	0.05571631432267474	0.07542556845313006	-0.9664326286453494	-9.440076592493519	20.26723654074889	10.743763068561629
1734657928.1080897	0.054392136329303044	0.05407319831001152	-0.963784272658606	-6.126321164080858	18.8073303030566	8.287412890857139
1734657928.1580896	0.05306795833593135	0.03272082816689298	-0.9611359166718627	-2.8125657356681977	17.347424065364308	5.831062713152649
1734657928.2080896	0.05174378034255966	0.011368458023774439	-0.9584875606851193	0.5011896927444628	15.887517827672019	3.3747125354481593
1734657928.2580895	0.050419602349187936	-0.00998391211934449	-0.9558392046983758	3.814945121157182	14.427611589979701	0.9183623577436268
1734657928.3080895	0.04909542435581625	-0.03133628226246303	-0.9531908487116324	7.128700549569841	12.967705352287412	-1.537987819960863
1734657928.3580897	0.06336384421974268	-0.05140287611019673	-0.9456845467865345	10.629454479677328	14.675489680372024	-3.3151495034639837
1734657928.4080896	0.15229997929843847	-0.06531231903719653	-0.9149151730389289	15.025681441150299	31.552280431798465	-1.8399055566609734
1734657928.4580896	0.24123611437713421	-0.07922176196419635	-0.8841457992913232	19.42190840262327	48.4290711832249	-0.36466160985796314
1734657928.5080895	0.26899307703544706	-0.0818667589728607	-0.8842623282755468	16.979633603688804	50.11183618614515	0.9559559089725613
1734657928.5580895	0.2814803267131163	-0.08170026231049178	-0.8920876714068863	12.830536777455226	48.002323473930886	2.2379802092132732
1734657928.6080897	0.2939675763907856	-0.08153376564812287	-0.8999130145382256	8.681439951221652	45.892810761716625	3.5200045094539845
1734657928.6580896	0.30645482606845487	-0.08136726898575394	-0.907738357669565	4.532343124988078	43.78329804950236	4.802028809694695
1734657928.7080896	0.3189420757461241	-0.08120077232338502	-0.9155637008009044	0.38324629875450356	41.6737853372881	6.084053109935407
1734657928.7580895	0.3314293254237936	-0.08103427566101609	-0.9233890439322441	-3.765850527479145	39.564272625073805	7.366077410176142
1734657928.8080895	0.33386750118343433	-0.07782002840242332	-0.9210250355030292	-2.709367065122674	37.729487508900604	7.231178562137257
1734657928.8580897	0.33370065468779214	-0.07381571250701108	-0.9160196406337638	-0.3034405979624868	35.9659200499628	6.728970610254305
1734657928.9080896	0.33353380819214995	-0.06981139661159884	-0.9110142457644985	2.1024858691977	34.20235259102499	6.226762658371354
1734657928.9580896	0.3333669616965078	-0.0658070807161866	-0.9060088508952333	4.508412336357888	32.43878513208718	5.724554706488402
1734657929.0080895	0.3332001152008656	-0.06180276482077429	-0.9010034560259679	6.914338803518118	30.67521767314934	5.222346754605441
1734657929.0580895	0.33303326870522343	-0.05779844892536205	-0.8959980611567026	9.320265270678306	28.911650214211534	4.72013880272249
1734657929.1080897	0.4224636668376546	-0.04565013181910353	-0.8496005272764141	-3.2389956219357696	42.53369064859783	8.82612761997928
1734657929.1580896	0.5058264321659937	-0.05903747641687432	-0.7994457578176819	-8.660394417104563	45.930492896266	10.306291878666553
1734657929.2080896	0.5703813535423344	-0.09069021205946722	-0.7536325878086658	-6.882010454027303	40.012264297828565	9.28590763755665
1734657929.2580895	0.6966353536836586	-0.12109467066884527	-0.6533043348252743	7.130967910736358	30.86028222227425	4.060245636283195
1734657929.3080895	0.7166754377154736	-0.12161654785717378	-0.62741922628418	7.467056820019922	34.27962156020268	4.447478510022953
1734657929.3580897	0.7367155217472885	-0.1221384250455023	-0.6015341177430856	7.803145729303485	37.698960898131105	4.834711383762711
1734657929.4080896	0.7567556057791035	-0.12266030223383081	-0.5756490092019914	8.139234638587048	41.11830023605954	5.221944257502469
1734657929.4580896	0.7767956898109184	-0.12318217942215934	-0.549763900660897	8.475323547870612	44.53763957398796	5.609177131242227
1734657929.5080895	0.7968357738427337	-0.12370405661048786	-0.5238787921198023	8.81141245715418	47.95697891191645	5.996410004981991
1734657929.5580895	0.8168758578745487	-0.12422593379881637	-0.4979936835787079	9.147501366437744	51.37631824984488	6.38364287872175
1734657929.6080897	0.8369159419063636	-0.1247478109871449	-0.47210857503761355	9.483590275721308	54.795657587773306	6.770875752461507
1734657929.6580896	0.8569560259381787	-0.1252696881754734	-0.4462234664965192	9.81967918500487	58.21499692570174	7.158108626201265
1734657929.7080896	0.8769961099699937	-0.12579156536380193	-0.4203383579554249	10.155768094288433	61.63433626363016	7.545341499941022
1734657929.7580895	0.8925180775148559	-0.13769478724533135	-0.3770875273238532	3.846172227822427	58.25191637839547	8.425076809210543
1734657929.8080895	0.9050355647814093	-0.15716643410441447	-0.32228874973471927	-6.882705191532374	50.34642775360773	9.632318914473696
1734657929.8580897	0.9175530520479628	-0.1766380809634976	-0.26748997214558534	-17.611582610887176	42.44093912881998	10.83956101973685
1734657929.9080896	0.930013941453811	-0.1960108433529641	-0.21300464715127032	-28.244216935218528	34.56124099937213	12.035879525873648
1734657929.9580896	0.932487908939219	-0.1979350402860592	-0.21382930297973965	-21.894367056004636	31.23238030511758	11.304684691297503
1734657930.0080895	0.934961876424627	-0.19985923721915436	-0.214653958808209	-15.544517176790631	27.903519610862965	10.573489856721345
1734657930.0580895	0.937435843910035	-0.20178343415224947	-0.21547861463667833	-9.19466729757674	24.57465891660841	9.842295022145201
1734657930.1080897	0.9480630699408381	-0.196749606937353	-0.19599874219952956	-6.6019644217521956	23.520066034524696	10.233178653051318
1734657930.1580896	0.96743529071778	-0.1832470603109712	-0.1516117623684738	-9.727529396890288	25.800352762683453	12.09394107978687
1734657930.2080896	0.9644789335612349	-0.1845404665669597	-0.14957926682334904	-9.714595334330403	25.645144011964835	12.00986967314762
1734657930.2580895	0.9615225764046899	-0.1858338728229482	-0.14754677127822427	-9.701661271770519	25.489935261246217	11.925798266508368
1734657930.3080895	0.9585662192481448	-0.18712727907893667	-0.14551427573309952	-9.688727209210633	25.3347265105276	11.841726859869116
1734657930.3580897	0.9556098620915997	-0.18842068533492512	-0.1434817801879748	-9.675793146650749	25.179517759808984	11.757655453229866
1734657930.4080896	0.9526535049350546	-0.1897140915909136	-0.14144928464285006	-9.662859084090865	25.024309009090366	11.673584046590616
1734657930.4580896	0.9496971477785096	-0.19100749784690207	-0.1394167890977253	-9.64992502153098	24.86910025837175	11.589512639951364
1734657930.5080895	0.9467407906219645	-0.19230090410289058	-0.13738429355260054	-9.636990958971094	24.71389150765313	11.505441233312112
1734657930.5580895	0.9437844334654194	-0.19359431035887903	-0.1353517980074758	-9.62405689641121	24.558682756934513	11.421369826672862
1734657930.6080897	0.9408280763088743	-0.1948877166148675	-0.13331930246235107	-9.611122833851326	24.403474006215898	11.337298420033612
1734657930.6580896	0.9378717191523293	-0.19618112287085598	-0.13128680691722633	-9.59818877129144	24.24826525549728	11.25322701339436
1734657930.7080896	0.9368808059058752	-0.1969617040910489	-0.12643848046754846	-9.190573669640111	23.13937096278068	10.738917256228852
1734657930.7580895	0.9392815855514709	-0.19685732236732736	-0.11673098016144384	-8.101872291224293	20.38473727376885	9.48216130262133
1734657930.8080895	0.9416823651970666	-0.19675294064360582	-0.10702347985533958	-7.013170912808514	17.63010358475711	8.225405349013855
1734657930.8580897	0.9440831448426623	-0.19664855891988425	-0.09731597954923497	-5.924469534392696	14.875469895745276	6.9686493954063335
1734657930.9080896	0.9464839244882581	-0.1965441771961627	-0.08760847924313037	-4.835768155976878	12.120836206733442	5.7118934417988125
1734657930.9580896	0.9488847041338537	-0.19643979547244114	-0.0779009789370261	-3.7470667775610993	9.366202517721705	4.455137488191336
1734657931.0080895	0.9512854837794495	-0.1963354137487196	-0.0681934786309215	-2.658365399145281	6.611568828709871	3.198381534583815
1734657931.0580895	0.9536862634250451	-0.19623103202499803	-0.05848597832481724	-1.5696640207295012	3.856935139698134	1.9416255809763374
1734657931.1080897	0.956087043070641	-0.1961266503012765	-0.04877847801871263	-0.4809626423136848	1.1023014506862978	0.6848696273688173
1734657931.1580896	0.9584878227162367	-0.19602226857755492	-0.03907097771260802	0.6077387361021334	-1.6523322383255348	-0.5718863262387046
1734657931.2080896	0.9649123525172121	-0.2045400647470842	-0.04028464028734007	4.242887337684317	-3.4815940286145475	-1.5297744603414154
1734657931.2580895	0.9709742782004811	-0.2114785651670676	-0.035803587082331036	6.262899386372623	-3.817700788949484	-2.028799649355785
1734657931.3080895	0.9760224765351215	-0.2156853971126013	-0.02528650721849676	6.675168917034927	-3.2876399638122367	-2.264382238305673
1734657931.3580897	0.9758813409830118	-0.22294704822461364	-0.028669533881466383	8.429517900479631	-3.266420930385108	-2.9425229741148313
1734657931.4080896	0.9564619932634466	-0.24155725645586362	-0.08369101908690117	15.169649838145393	-5.135533148393259	-5.2647533055795055
1734657931.4580896	0.9565427940667001	-0.23765764746639895	-0.09015654363365126	14.56375570917498	-5.66127740580745	-5.016035322647927
1734657931.5080895	0.9570988160973989	-0.2332094712208089	-0.09543875292528943	13.77883794250524	-6.154283606360345	-4.704662985456624
1734657931.5580895	0.9576548381280976	-0.22876129497521902	-0.1007209622169274	12.993920175835525	-6.647289806913224	-4.393290648265332
1734657931.6080897	0.9582108601587963	-0.224313118729629	-0.10600317150856557	12.209002409165784	-7.1402960074661195	-4.08191831107403
1734657931.6580896	0.9587668821894951	-0.21986494248403896	-0.11128538080020373	11.424084642496043	-7.633302208019015	-3.7705459738827276
1734657931.7080896	0.9593229042201938	-0.21541676623844908	-0.1165675900918417	10.63916687582633	-8.126308408571893	-3.459173636691436
1734657931.7580895	0.9598789262508926	-0.21096858999285906	-0.12184979938347987	9.854249109156587	-8.619314609124789	-3.1478012995001334
1734657931.8080895	0.9604349482815914	-0.20652041374726918	-0.12713200867511784	9.069331342486873	-9.112320809677666	-2.836428962308842
1734657931.8580897	0.9609909703122901	-0.20207223750167913	-0.132414217966756	8.284413575817133	-9.605327010230562	-2.5250566251175393
1734657931.9080896	0.9615469923429888	-0.1976240612560891	-0.13769642725839418	7.499495809147391	-10.098333210783458	-2.213684287926237
1734657931.9580896	0.9590185815079267	-0.19338315479474347	-0.1537714626669789	6.251893435151265	-12.324319694546205	-2.1794940855371174
1734657932.0080895	0.9429263187975533	-0.19005372113052826	-0.2173081550924189	2.969626747845782	-22.171119756462655	-3.3642175643870256
1734657932.0580895	0.9268340560871804	-0.18672428746631317	-0.2808448475178567	-0.3126399394595847	-32.01791981837876	-4.548941043236892
1734657932.1080897	0.9107417933768069	-0.183394853802098	-0.34438153994329673	-3.5949066267650673	-41.86471988029521	-5.7336645220868
1734657932.1580896	0.9026264880358411	-0.18159602589289442	-0.37568609964242466	-5.795723074923798	-46.35761643746608	-6.467536774978079
1734657932.2080896	0.9002626585236966	-0.1809007819187343	-0.3837509297426822	-7.21680175810711	-46.9902884539518	-6.876340231784238
1734657932.2580895	0.897898829011552	-0.1802055379445741	-0.3918157598429401	-8.637880441290473	-47.62296047043754	-7.285143688590411
1734657932.3080895	0.8955349994994075	-0.17951029397041396	-0.3998805899431979	-10.058959124473837	-48.25563248692328	-7.693947145396583
1734657932.3580897	0.8931711699872631	-0.17881504999625383	-0.40794542004345546	-11.480037807657151	-48.888304503409	-8.102750602202741
1734657932.4080896	0.8908073404751186	-0.17811980602209368	-0.4160102501437133	-12.901116490840515	-49.52097651989475	-8.511554059008915
1734657932.4580896	0.888443510962974	-0.17742456204793353	-0.42407508024397084	-14.322195174023825	-50.15364853638047	-8.920357515815073
1734657932.5080895	0.8652725502473224	-0.1654972324838766	-0.4545617055913853	-8.994481607287984	-50.24923559889799	-8.879235598897992
1734657932.5580895	0.8189051006767474	-0.14100364997397125	-0.5090912493492814	4.210475425297499	-49.606749665803115	-8.254890036440244
1734657932.6080897	0.8183496242793704	-0.14102501445079343	-0.5096253612698362	4.271791473777184	-49.47065794844576	-8.224979768889177
1734657932.6580896	0.8177941478819934	-0.14104637892761562	-0.5101594731903909	4.3331075222568725	-49.33456623108841	-8.19506950133811
1734657932.7080896	0.8172386714846165	-0.1410677434044378	-0.5106935851109456	4.394423570736557	-49.19847451373106	-8.165159233787046
1734657932.7580895	0.8166831950872395	-0.14108910788126	-0.5112276970315004	4.455739619216246	-49.062382796373704	-8.135248966235977
1734657932.8080895	0.8161277186898626	-0.1411104723580822	-0.5117618089520551	4.517055667695933	-48.926291079016345	-8.10533869868491
1734657932.8580897	0.8155722422924856	-0.14113183683490438	-0.5122959208726099	4.578371716175619	-48.79019936165899	-8.075428431133844
1734657932.9080896	0.8150167658951087	-0.14115320131172657	-0.5128300327931647	4.6396877646553065	-48.65410764430164	-8.045518163582777
1734657932.9580896	0.8144612894977318	-0.14117456578854876	-0.5133641447137195	4.701003813134992	-48.51801592694429	-8.01560789603171
1734657933.0080895	0.8139058131003548	-0.14119593026537094	-0.5138982566342742	4.76231986161468	-48.381924209586934	-7.985697628480644
1734657933.0580895	0.8133503367029778	-0.14121729474219313	-0.514432368554829	4.823635910094367	-48.245832492229574	-7.955787360929577
1734657933.1080897	0.8127948603056009	-0.14123865921901532	-0.5149664804753837	4.884951958574053	-48.10974077487222	-7.925877093378511
1734657933.1580896	0.8122393839082239	-0.14126002369583754	-0.5155005923959385	4.946268007053741	-47.97364905751487	-7.895966825827443
1734657933.2080896	0.811683907510847	-0.14128138817265973	-0.5160347043164932	5.007584055533426	-47.83755734015752	-7.8660565582763775
1734657933.2580895	0.81112843111347	-0.14130275264948192	-0.5165688162370481	5.068900104013114	-47.701465622800164	-7.83614629072531
1734657933.3080895	0.810572954716093	-0.1413241171263041	-0.5171029281576028	5.130216152492802	-47.565373905442804	-7.806236023174243
1734657933.3580897	0.8100174783187162	-0.1413454816031263	-0.5176370400781576	5.191532200972487	-47.42928218808546	-7.776325755623176
1734657933.4080896	0.8094620019213392	-0.14136684607994848	-0.5181711519987123	5.2528482494521755	-47.2931904707281	-7.74641548807211
1734657933.4580896	0.8089065255239622	-0.14138821055677067	-0.5187052639192671	5.31416429793186	-47.15709875337075	-7.716505220521044
1734657933.5080895	0.8083510491265853	-0.14140957503359286	-0.5192393758398218	5.375480346411549	-47.021007036013394	-7.686594952969976
1734657933.5580895	0.8077955727292083	-0.14143093951041505	-0.5197734877603767	5.436796394891236	-46.884915318656034	-7.6566846854189095
1734657933.6080897	0.8072400963318314	-0.14145230398723724	-0.5203075996809314	5.498112443370922	-46.74882360129869	-7.626774417867843
1734657933.6580896	0.8066846199344544	-0.14147366846405943	-0.5208417116014862	5.55942849185061	-46.61273188394133	-7.596864150316776
1734657933.7080896	0.8061291435370774	-0.14149503294088162	-0.5213758235220409	5.620744540330295	-46.47664016658398	-7.566953882765709
1734657933.7580895	0.8055736671397005	-0.1415163974177038	-0.5219099354425957	5.682060588809983	-46.340548449226624	-7.5370436152146425
1734657933.8080895	0.8050181907423235	-0.141537761894526	-0.5224440473631504	5.743376637289671	-46.20445673186927	-7.507133347663576
1734657933.8580897	0.8044627143449466	-0.14155912637134818	-0.5229781592837052	5.804692685769356	-46.06836501451192	-7.477223080112509
1734657933.9080896	0.8039072379475697	-0.1415804908481704	-0.52351227120426	5.866008734249045	-45.93227329715456	-7.447312812561442
1734657933.9580896	0.8033517615501927	-0.1416018553249926	-0.5240463831248148	5.927324782728729	-45.79618157979721	-7.4174025450103755
1734657934.0080895	0.8027962851528158	-0.14162321980181478	-0.5245804950453695	5.988640831208418	-45.660089862439854	-7.387492277459309
1734657934.0580895	0.8022408087554388	-0.14164458427863696	-0.5251146069659243	6.049956879688105	-45.5239981450825	-7.357582009908241
1734657934.1080897	0.8016853323580618	-0.14166594875545915	-0.525648718886479	6.111272928167791	-45.38790642772515	-7.327671742357175
1734657934.1580896	0.8011298559606849	-0.14168731323228134	-0.5261828308070338	6.172588976647479	-45.25181471036779	-7.297761474806109
1734657934.2080896	0.8005743795633079	-0.14170867770910353	-0.5267169427275885	6.233905025127164	-45.11572299301044	-7.267851207255042
1734657934.2580895	0.8000189031659309	-0.14173004218592572	-0.5272510546481434	6.295221073606852	-44.979631275653084	-7.237940939703975
1734657934.3080895	0.799463426768554	-0.1417514066627479	-0.5277851665686981	6.356537122086539	-44.84353955829573	-7.2080306721529075
1734657934.3580897	0.7989079503711771	-0.1417727711395701	-0.5283192784892529	6.417853170566225	-44.70744784093838	-7.178120404601842
1734657934.4080896	0.7983524739738002	-0.1417941356163923	-0.5288533904098076	6.479169219045913	-44.57135612358102	-7.148210137050775
1734657934.4580896	0.7977969975764232	-0.14181550009321447	-0.5293875023303624	6.5404852675255984	-44.43526440622367	-7.118299869499708
1734657934.5080895	0.7972415211790462	-0.14183686457003666	-0.5299216142509171	6.601801316005286	-44.299172688866314	-7.088389601948641
1734657934.5580895	0.7966860447816693	-0.14185822904685885	-0.530455726171472	6.6631173644849735	-44.16308097150896	-7.058479334397574
1734657934.6080897	0.7961305683842923	-0.14187959352368104	-0.5309898380920267	6.724433412964659	-44.02698925415161	-7.028569066846508
1734657934.6580896	0.7955750919869153	-0.14190095800050326	-0.5315239500125815	6.785749461444347	-43.890897536794256	-6.99865879929544
1734657934.7080896	0.7950196155895384	-0.14192232247732545	-0.5320580619331362	6.8470655099240325	-43.7548058194369	-6.9687485317443745
1734657934.7580895	0.7944641391921614	-0.14194368695414764	-0.532592173853691	6.90838155840372	-43.618714102079544	-6.938838264193308
1734657934.8080895	0.7939086627947844	-0.14196505143096982	-0.5331262857742457	6.9696976068834084	-43.48262238472219	-6.90892799664224
1734657934.8580897	0.7933531863974076	-0.141986415907792	-0.5336603976948004	7.031013655363093	-43.34653066736484	-6.879017729091174
1734657934.9080896	0.7511593394183297	-0.14230209863235863	-0.5782574496405394	5.008176834152348	-44.507667351641146	-5.5806122919612005
1734657934.9580896	0.6362673555966496	-0.14313164364190142	-0.699785793538562	-0.6534678559773734	-47.93368824105298	-2.0674891765473724
1734657935.0080895	0.5213753717749655	-0.14396118865144428	-0.8213141374365888	-6.315112546107295	-51.359709130464935	1.445633938866579
1734657935.0580895	0.5087849140326395	-0.1423553848162634	-0.8291751362107483	-6.735973181941471	-51.52371364718908	1.66570470783624
1734657935.1080897	0.5012156921151426	-0.1406300474674222	-0.8314570339946996	-6.89960194986383	-51.52760957023486	1.7241435535227967
1734657935.1580896	0.4936464701976454	-0.13890471011858094	-0.833738931778651	-7.063230717786195	-51.531505493280626	1.7825823992093555
1734657935.2080896	0.4860772482801486	-0.13717937276973974	-0.8360208295626023	-7.2268594857085535	-51.535401416326394	1.841021244895912
1734657935.2580895	0.47850802636265144	-0.13545403542089848	-0.8383027273465535	-7.3904882536309175	-51.53929733937217	1.8994600905824708
1734657935.3080895	0.4709388044451543	-0.13372869807205723	-0.8405846251305049	-7.5541170215532825	-51.54319326241794	1.9578989362690296
1734657935.3580897	0.4633695825276574	-0.13200336072321603	-0.8428665229144562	-7.717745789475641	-51.54708918546371	2.016337781955586
1734657935.4080896	0.4558003606101603	-0.13027802337437477	-0.8451484206984076	-7.881374557398005	-51.55098510850948	2.074776627642145
1734657935.4580896	0.44823113869266346	-0.12855268602553357	-0.8474303184823588	-8.045003325320364	-51.55488103155525	2.1332154733287014
1734657935.5080895	0.4406619167751663	-0.12682734867669232	-0.8497122162663101	-8.208632093242729	-51.55877695460102	2.19165431901526
1734657935.5580895	0.4330926948576692	-0.12510201132785106	-0.8519941140502615	-8.372260861165092	-51.56267287764679	2.250093164701819
1734657935.6080897	0.42552347294017234	-0.12337667397900987	-0.8542760118342128	-8.535889629087452	-51.566568800692565	2.3085320103883755
1734657935.6580896	0.4179542510226752	-0.12165133663016861	-0.8565579096181641	-8.699518397009815	-51.57046472373833	2.3669708560749343
1734657935.7080896	0.4103850291051783	-0.11992599928132741	-0.8588398074021153	-8.863147164932174	-51.5743606467841	2.425409701761491
1734657935.7580895	0.4028158071876812	-0.11820066193248616	-0.8611217051860667	-9.02677593285454	-51.578256569829875	2.4838485474480496
1734657935.8080895	0.3952465852701841	-0.1164753245836449	-0.8634036029700181	-9.190404700776902	-51.58215249287564	2.5422873931346084
1734657935.8580897	0.3876773633526872	-0.1147499872348037	-0.8656855007539693	-9.354033468699262	-51.58604841592141	2.6007262388211654
1734657935.9080896	0.38010814143519006	-0.11302464988596245	-0.8679673985379206	-9.517662236621625	-51.589944338967186	2.659165084507724
